loggingTime,loggingSample,identifierForVendor,accelerometerTimestamp_sinceReboot,accelerometerAccelerationX,accelerometerAccelerationY,accelerometerAccelerationZ,label
1571527740.957114,1,0,74601.96837579166,0.0113677978515625,-0.0051727294921875,-0.999267578125,1
1571527740.971205,2,0,74601.98837179167,0.011383056640625,-0.0055999755859375,-1.001373291015625,1
1571527740.991422,3,0,74602.00836779167,0.0110931396484375,-0.00421142578125,-0.9992523193359375,1
1571527741.01134,4,0,74602.02836379167,0.011077880859375,-0.0043792724609375,-1.00030517578125,1
1571527741.031165,5,0,74602.04835979168,0.01092529296875,-0.004486083984375,-0.9990234375,1
1571527741.051377,6,0,74602.06835579168,0.0109100341796875,-0.004608154296875,-0.9997406005859375,1
1571527741.071253,7,0,74602.08835179167,0.011260986328125,-0.0050201416015625,-0.999603271484375,1
1571527741.091412,8,0,74602.10834779167,0.009490966796875,-0.0056915283203125,-0.9998779296875,1
1571527741.11124,9,0,74602.12834379167,0.011016845703125,-0.006072998046875,-0.9991302490234375,1
1571527741.131656,10,0,74602.14833979167,0.01080322265625,-0.0054779052734375,-1.0001220703125,1
1571527741.168444,11,0,74602.16833579168,0.010955810546875,-0.004150390625,-0.999481201171875,1
1571527741.171127,12,0,74602.18833079167,0.0110931396484375,-0.0055389404296875,-0.9994659423828125,1
1571527741.1913,13,0,74602.20832679168,0.011077880859375,-0.004364013671875,-0.99853515625,1
1571527741.211206,14,0,74602.22832279168,0.0101318359375,-0.0028533935546875,-0.999664306640625,1
1571527741.231267,15,0,74602.24831879167,0.011199951171875,-0.0051422119140625,-0.998931884765625,1
1571527741.251513,16,0,74602.26831479167,0.0110931396484375,-0.0041961669921875,-0.9999237060546875,1
1571527741.286186,17,0,74602.28831079167,0.0108642578125,-0.0045623779296875,-0.99969482421875,1
1571527741.291136,18,0,74602.30830679167,0.011077880859375,-0.0052337646484375,-0.9995880126953125,1
1571527741.311285,19,0,74602.32830279168,0.0110015869140625,-0.0046539306640625,-0.9996185302734375,1
1571527741.331145,20,0,74602.34829879167,0.0107574462890625,-0.0043792724609375,-1.000686645507812,1
1571527741.351257,21,0,74602.36829479167,0.0118255615234375,-0.0041656494140625,-1.000442504882812,1
1571527741.371564,22,0,74602.388293875,0.010589599609375,-0.0035858154296875,-0.9989776611328125,1
1571527741.405653,23,0,74602.40828987501,0.0116729736328125,-0.0052337646484375,-1.000442504882812,1
1571527741.411212,24,0,74602.42828587501,0.011322021484375,-0.004974365234375,-1.0001220703125,1
1571527741.43125,25,0,74602.44828187501,0.0105133056640625,-0.004638671875,-0.9994049072265625,1
1571527741.451205,26,0,74602.468277875,0.0111541748046875,-0.0047454833984375,-1.000244140625,1
1571527741.471238,27,0,74602.488273875,0.011383056640625,-0.004608154296875,-0.999114990234375,1
1571527741.491696,28,0,74602.508269875,0.0111236572265625,-0.0038909912109375,-0.9998016357421875,1
1571527741.526885,29,0,74602.52826587501,0.011077880859375,-0.004547119140625,-0.9998626708984375,1
1571527741.53133,30,0,74602.54826187501,0.0106964111328125,-0.00494384765625,-0.9995269775390625,1
1571527741.551292,31,0,74602.568257875,0.0109405517578125,-0.0045013427734375,-0.9998779296875,1
1571527741.5717,32,0,74602.588253875,0.0110931396484375,-0.005950927734375,-0.9998779296875,1
1571527741.591479,33,0,74602.608249875,0.0111236572265625,-0.0043792724609375,-0.999481201171875,1
1571527741.611474,34,0,74602.62824587501,0.0111541748046875,-0.004150390625,-0.9995880126953125,1
1571527741.646927,35,0,74602.64824187501,0.0113372802734375,-0.0047607421875,-0.999267578125,1
1571527741.650972,36,0,74602.668237875,0.0111083984375,-0.0045928955078125,-1.000335693359375,1
1571527741.671173,37,0,74602.688233875,0.010009765625,-0.0054168701171875,-0.9992828369140625,1
1571527741.691441,38,0,74602.708229875,0.0111236572265625,-0.005523681640625,-1.00048828125,1
1571527741.711152,39,0,74602.72822587501,0.0110931396484375,-0.0050506591796875,-0.998992919921875,1
1571527741.731407,40,0,74602.74822187501,0.0105133056640625,-0.0041351318359375,-0.999237060546875,1
1571527741.761146,41,0,74602.76821787501,0.010955810546875,-0.0046539306640625,-0.9993896484375,1
1571527741.771036,42,0,74602.788213875,0.010528564453125,-0.004852294921875,-0.9998321533203125,1
1571527741.791377,43,0,74602.808209875,0.0102691650390625,-0.00592041015625,-0.9996337890625,1
1571527741.811148,44,0,74602.828205875,0.0106048583984375,-0.0052642822265625,-0.999908447265625,1
1571527741.831316,45,0,74602.84820187501,0.01123046875,-0.0040283203125,-0.9997100830078125,1
1571527741.851243,46,0,74602.86819787501,0.0113983154296875,-0.0036773681640625,-0.9992218017578125,1
1571527741.886753,47,0,74602.888193875,0.01080322265625,-0.004180908203125,-0.9994659423828125,1
1571527741.891216,48,0,74602.908189875,0.011138916015625,-0.004180908203125,-0.9991302490234375,1
1571527741.911307,49,0,74602.928185875,0.010986328125,-0.006011962890625,-1.000289916992188,1
1571527741.931134,50,0,74602.94818187501,0.0113067626953125,-0.0046844482421875,-1.00006103515625,1
1571527741.951133,51,0,74602.96817787501,0.0102081298828125,-0.006378173828125,-1.000686645507812,1
1571527741.971166,52,0,74602.988173875,0.01019287109375,-0.0062408447265625,-0.999481201171875,1
1571527741.991341,53,0,74603.008169875,0.011474609375,-0.0052032470703125,-0.99957275390625,1
1571527742.011303,54,0,74603.028165875,0.0112457275390625,-0.0027008056640625,-0.999664306640625,1
1571527742.031425,55,0,74603.04816187501,0.01123046875,-0.0030059814453125,-0.999267578125,1
1571527742.071772,56,0,74603.06815787501,0.0111541748046875,-0.005218505859375,-0.999114990234375,1
1571527742.071861,57,0,74603.08815387501,0.010955810546875,-0.0066986083984375,-0.9996337890625,1
1571527742.091378,58,0,74603.108149875,0.0108795166015625,-0.0075225830078125,-0.9998931884765625,1
1571527742.111087,59,0,74603.128145875,0.0112152099609375,-0.0054473876953125,-1.00048828125,1
1571527742.131079,60,0,74603.148141875,0.0106658935546875,-0.00372314453125,-1.000030517578125,1
1571527742.151094,61,0,74603.16813787501,0.0110321044921875,-0.00311279296875,-0.9996337890625,1
1571527742.171151,62,0,74603.18813387501,0.0107879638671875,-0.00335693359375,-0.9990234375,1
1571527742.191255,63,0,74603.208129875,0.010589599609375,-0.00506591796875,-1.000289916992188,1
1571527742.21125,64,0,74603.228125875,0.0102691650390625,-0.0067138671875,-0.9996795654296875,1
1571527742.248309,65,0,74603.248121875,0.011260986328125,-0.0054931640625,-0.999908447265625,1
1571527742.250872,66,0,74603.26811787501,0.01104736328125,-0.00494384765625,-0.999298095703125,1
1571527742.271043,67,0,74603.28811387501,0.0107574462890625,-0.00347900390625,-1.000015258789062,1
1571527742.291207,68,0,74603.30810987501,0.0110626220703125,-0.0040130615234375,-0.9994049072265625,1
1571527742.311075,69,0,74603.32810487501,0.01080322265625,-0.0043182373046875,-1.000900268554688,1
1571527742.331275,70,0,74603.34810087501,0.010650634765625,-0.0048980712890625,-0.9993743896484375,1
1571527742.36711,71,0,74603.368096875,0.010406494140625,-0.0058746337890625,-0.99932861328125,1
1571527742.370834,72,0,74603.388093375,0.0102996826171875,-0.0059661865234375,-0.9994049072265625,1
1571527742.391149,73,0,74603.40808937501,0.0113525390625,-0.0051727294921875,-0.9990386962890625,1
1571527742.41102,74,0,74603.42808537501,0.011077880859375,-0.0043792724609375,-1.000930786132812,1
1571527742.431072,75,0,74603.448081375,0.0110015869140625,-0.0031280517578125,-0.99932861328125,1
1571527742.451157,76,0,74603.468077375,0.0104217529296875,-0.0048675537109375,-0.9990692138671875,1
1571527742.484496,77,0,74603.488073375,0.010986328125,-0.0059356689453125,-0.999786376953125,1
1571527742.491099,78,0,74603.50806937501,0.01141357421875,-0.0065460205078125,-0.9989166259765625,1
1571527742.510859,79,0,74603.52806537501,0.010894775390625,-0.005218505859375,-1.000350952148438,1
1571527742.530975,80,0,74603.54806137501,0.0111083984375,-0.00439453125,-1.000045776367188,1
1571527742.551022,81,0,74603.568057375,0.0111846923828125,-0.0040283203125,-0.9987945556640625,1
1571527742.570962,82,0,74603.588053375,0.011627197265625,-0.003143310546875,-1.001190185546875,1
1571527742.606147,83,0,74603.60804937501,0.0106964111328125,-0.005950927734375,-0.9991912841796875,1
1571527742.610771,84,0,74603.62804537501,0.0100860595703125,-0.0063018798828125,-0.99969482421875,1
1571527742.631059,85,0,74603.64804137501,0.0104522705078125,-0.00628662109375,-0.9990997314453125,1
1571527742.650918,86,0,74603.668037375,0.011138916015625,-0.0044708251953125,-1.000015258789062,1
1571527742.670968,87,0,74603.688033375,0.010986328125,-0.004608154296875,-0.999542236328125,1
1571527742.691227,88,0,74603.708029375,0.010986328125,-0.0033721923828125,-1.000045776367188,1
1571527742.710947,89,0,74603.72802537501,0.0113983154296875,-0.00341796875,-1.00006103515625,1
1571527742.731122,90,0,74603.74802137501,0.010955810546875,-0.005126953125,-0.9999847412109375,1
1571527742.751019,91,0,74603.768017375,0.010711669921875,-0.00634765625,-1.000274658203125,1
1571527742.791133,92,0,74603.788013375,0.0107421875,-0.0054779052734375,-1.000228881835938,1
1571527742.791351,93,0,74603.808009375,0.010711669921875,-0.0041351318359375,-1.000534057617188,1
1571527742.810942,94,0,74603.82800537501,0.0113067626953125,-0.004669189453125,-0.997894287109375,1
1571527742.830971,95,0,74603.84800137501,0.0121307373046875,-0.0035858154296875,-1.000885009765625,1
1571527742.850913,96,0,74603.86799737501,0.01007080078125,-0.006134033203125,-0.99945068359375,1
1571527742.870945,97,0,74603.887993375,0.0104522705078125,-0.006500244140625,-1.0010986328125,1
1571527742.906932,98,0,74603.907989375,0.010498046875,-0.006011962890625,-0.9994659423828125,1
1571527742.910701,99,0,74603.927985375,0.010498046875,-0.00518798828125,-0.99957275390625,1
1571527742.930927,100,0,74603.94798137501,0.0106658935546875,-0.0048980712890625,-0.999908447265625,1
1571527742.950883,101,0,74603.96797737501,0.01123046875,-0.0038909912109375,-0.9990997314453125,1
1571527742.970931,102,0,74603.987973375,0.0113067626953125,-0.00537109375,-1.000595092773438,1
1571527742.990855,103,0,74604.007969375,0.011138916015625,-0.0053253173828125,-0.9997711181640625,1
1571527743.026789,104,0,74604.027965375,0.0106201171875,-0.005523681640625,-0.998291015625,1
1571527743.030821,105,0,74604.04796137501,0.010528564453125,-0.0063018798828125,-0.9992523193359375,1
1571527743.050938,106,0,74604.06795737501,0.0115203857421875,-0.004608154296875,-0.9997100830078125,1
1571527743.070877,107,0,74604.087953375,0.011383056640625,-0.0047607421875,-1.000518798828125,1
1571527743.090937,108,0,74604.107949375,0.0110015869140625,-0.0039215087890625,-0.999359130859375,1
1571527743.111118,109,0,74604.127945375,0.0108184814453125,-0.0057220458984375,-0.999969482421875,1
1571527743.143994,110,0,74604.14794137501,0.0113983154296875,-0.0055694580078125,-0.9993133544921875,1
1571527743.150672,111,0,74604.16793737501,0.0111236572265625,-0.006072998046875,-1.00006103515625,1
1571527743.170852,112,0,74604.18793337501,0.010986328125,-0.0053863525390625,-0.99871826171875,1
1571527743.190936,113,0,74604.207929375,0.0112762451171875,-0.0047607421875,-0.9996490478515625,1
1571527743.210968,114,0,74604.227925375,0.011749267578125,-0.0048065185546875,-1.0001220703125,1
1571527743.230871,115,0,74604.247921375,0.0111541748046875,-0.00439453125,-0.9998321533203125,1
1571527743.250922,116,0,74604.26791737501,0.0108795166015625,-0.0050811767578125,-1.000167846679688,1
1571527743.270766,117,0,74604.28791337501,0.0109405517578125,-0.0052490234375,-0.99993896484375,1
1571527743.29111,118,0,74604.307909375,0.011016845703125,-0.00543212890625,-0.999420166015625,1
1571527743.33104,119,0,74604.32790437501,0.01055908203125,-0.0054168701171875,-0.9986724853515625,1
1571527743.331126,120,0,74604.34790037501,0.010986328125,-0.0054168701171875,-0.999908447265625,1
1571527743.350844,121,0,74604.36789737501,0.01123046875,-0.0045013427734375,-0.9992523193359375,1
1571527743.370678,122,0,74604.38788841668,0.0110321044921875,-0.0045013427734375,-1,1
1571527743.390924,123,0,74604.40788441667,0.010772705078125,-0.004669189453125,-0.99932861328125,1
1571527743.41101,124,0,74604.42788041667,0.0108795166015625,-0.0058441162109375,-0.999481201171875,1
1571527743.44135,125,0,74604.44787641667,0.010894775390625,-0.0048828125,-0.9999847412109375,1
1571527743.450583,126,0,74604.46787241667,0.010467529296875,-0.0050811767578125,-0.9995269775390625,1
1571527743.470775,127,0,74604.48786841668,0.0106048583984375,-0.004241943359375,-1.000518798828125,1
1571527743.491151,128,0,74604.50786441666,0.0107269287109375,-0.0049896240234375,-0.99920654296875,1
1571527743.510698,129,0,74604.52786041667,0.0108184814453125,-0.0051422119140625,-0.998779296875,1
1571527743.530922,130,0,74604.54785641667,0.01055908203125,-0.0057525634765625,-1.000411987304688,1
1571527743.570288,131,0,74604.56785241667,0.01031494140625,-0.006103515625,-0.9997711181640625,1
1571527743.570548,132,0,74604.58784841668,0.0111083984375,-0.004730224609375,-0.9999542236328125,1
1571527743.590873,133,0,74604.60784441668,0.01055908203125,-0.0045013427734375,-0.998687744140625,1
1571527743.610768,134,0,74604.62784041667,0.0118408203125,-0.00445556640625,-1.000534057617188,1
1571527743.630749,135,0,74604.64783641667,0.010467529296875,-0.0052947998046875,-0.998748779296875,1
1571527743.650879,136,0,74604.66783241667,0.01043701171875,-0.0063629150390625,-1.000259399414062,1
1571527743.683815,137,0,74604.68782841667,0.0111236572265625,-0.0055084228515625,-1.00048828125,1
1571527743.690773,138,0,74604.70782441668,0.0107574462890625,-0.0052490234375,-0.9998016357421875,1
1571527743.710747,139,0,74604.72782041667,0.0108795166015625,-0.0052337646484375,-1.000320434570312,1
1571527743.730711,140,0,74604.74781641667,0.0109405517578125,-0.0055389404296875,-0.9987030029296875,1
1571527743.750753,141,0,74604.76781241667,0.0104522705078125,-0.00439453125,-0.999359130859375,1
1571527743.770947,142,0,74604.78780841667,0.0109405517578125,-0.0050048828125,-1.000335693359375,1
1571527743.810704,143,0,74604.80780441668,0.0110626220703125,-0.00555419921875,-0.998992919921875,1
1571527743.810828,144,0,74604.82780041666,0.010589599609375,-0.005584716796875,-0.999176025390625,1
1571527743.830638,145,0,74604.84779641667,0.010955810546875,-0.0045166015625,-0.9998626708984375,1
1571527743.850683,146,0,74604.86779241667,0.0106353759765625,-0.00567626953125,-1.000228881835938,1
1571527743.870541,147,0,74604.88778841667,0.0112457275390625,-0.0045928955078125,-0.999481201171875,1
1571527743.890974,148,0,74604.90778441667,0.01123046875,-0.0052032470703125,-1.000274658203125,1
1571527743.926887,149,0,74604.92778041668,0.0106964111328125,-0.005340576171875,-0.9990386962890625,1
1571527743.930521,150,0,74604.94777641667,0.0111846923828125,-0.0056610107421875,-1.000350952148438,1
1571527743.950762,151,0,74604.96777241667,0.01123046875,-0.0050048828125,-0.9999847412109375,1
1571527743.970537,152,0,74604.98776841667,0.010833740234375,-0.0048065185546875,-0.9993743896484375,1
1571527743.990828,153,0,74605.00776441667,0.01190185546875,-0.0046539306640625,-0.99932861328125,1
1571527744.010981,154,0,74605.02776041668,0.011260986328125,-0.00433349609375,-0.9995269775390625,1
1571527744.050921,155,0,74605.04775641666,0.010528564453125,-0.0045623779296875,-1.000534057617188,1
1571527744.051052,156,0,74605.06775241667,0.0107574462890625,-0.004730224609375,-0.9990234375,1
1571527744.070751,157,0,74605.08774841667,0.0102996826171875,-0.0063629150390625,-0.9991912841796875,1
1571527744.090689,158,0,74605.10774441667,0.0107574462890625,-0.0059661865234375,-1.0001220703125,1
1571527744.11064,159,0,74605.12774041668,0.01043701171875,-0.0050201416015625,-0.9988250732421875,1
1571527744.130643,160,0,74605.14773641666,0.0107421875,-0.004852294921875,-1.000579833984375,1
1571527744.166653,161,0,74605.16773141667,0.0113525390625,-0.0043792724609375,-0.99920654296875,1
1571527744.170436,162,0,74605.18772741668,0.0106964111328125,-0.0046539306640625,-1.000015258789062,1
1571527744.190816,163,0,74605.20772341666,0.0107574462890625,-0.0052947998046875,-0.999053955078125,1
1571527744.210588,164,0,74605.22771941667,0.0105133056640625,-0.0058746337890625,-1.000015258789062,1
1571527744.230481,165,0,74605.24771541667,0.0108184814453125,-0.0056304931640625,-0.99981689453125,1
1571527744.250775,166,0,74605.26771141667,0.01068115234375,-0.0058746337890625,-1.000732421875,1
1571527744.286373,167,0,74605.28770741668,0.0109100341796875,-0.00457763671875,-0.9990081787109375,1
1571527744.290531,168,0,74605.30770341668,0.01116943359375,-0.004852294921875,-0.999969482421875,1
1571527744.31079,169,0,74605.32769941667,0.011077880859375,-0.0042572021484375,-0.9994659423828125,1
1571527744.330451,170,0,74605.34769541667,0.0099029541015625,-0.0055389404296875,-1.000335693359375,1
1571527744.350599,171,0,74605.36769141667,0.010650634765625,-0.0048370361328125,-0.9996337890625,1
1571527744.370607,172,0,74605.387687625,0.010406494140625,-0.005035400390625,-1.00018310546875,1
1571527744.406813,173,0,74605.407683625,0.010986328125,-0.00567626953125,-0.9994964599609375,1
1571527744.410382,174,0,74605.42767962501,0.0103759765625,-0.00518798828125,-0.9991607666015625,1
1571527744.430601,175,0,74605.44767562501,0.0112152099609375,-0.0054779052734375,-1,1
1571527744.450379,176,0,74605.46767162501,0.0107421875,-0.003997802734375,-0.9996185302734375,1
1571527744.470503,177,0,74605.487667625,0.01123046875,-0.0057525634765625,-1.000503540039062,1
1571527744.490778,178,0,74605.507663625,0.0104217529296875,-0.0053558349609375,-0.9995880126953125,1
1571527744.527802,179,0,74605.527659625,0.010955810546875,-0.0058746337890625,-0.9993438720703125,1
1571527744.530286,180,0,74605.54765562501,0.0108642578125,-0.005035400390625,-0.999359130859375,1
1571527744.550545,181,0,74605.56765162501,0.01055908203125,-0.005096435546875,-1.000259399414062,1
1571527744.570484,182,0,74605.587647625,0.0106964111328125,-0.0051727294921875,-1.000152587890625,1
1571527744.59053,183,0,74605.607643625,0.0112457275390625,-0.005218505859375,-0.999908447265625,1
1571527744.610941,184,0,74605.627639625,0.01104736328125,-0.00543212890625,-0.9996337890625,1
1571527744.649831,185,0,74605.64763562501,0.0103912353515625,-0.0053558349609375,-0.9996185302734375,1
1571527744.650552,186,0,74605.66763162501,0.01165771484375,-0.0058746337890625,-0.99798583984375,1
1571527744.670518,187,0,74605.68762762501,0.0106658935546875,-0.0052642822265625,-0.999755859375,1
1571527744.690606,188,0,74605.707623625,0.0109405517578125,-0.0055694580078125,-0.9993438720703125,1
1571527744.710564,189,0,74605.727619625,0.0119476318359375,-0.00531005859375,-0.999603271484375,1
1571527744.730658,190,0,74605.747615625,0.011444091796875,-0.004364013671875,-0.9990692138671875,1
1571527744.767558,191,0,74605.76761162501,0.010406494140625,-0.0046539306640625,-0.9996490478515625,1
1571527744.770422,192,0,74605.78760762501,0.0111846923828125,-0.004913330078125,-1.00048828125,1
1571527744.790477,193,0,74605.807603625,0.011260986328125,-0.004913330078125,-0.9996337890625,1
1571527744.810728,194,0,74605.827599625,0.0106048583984375,-0.0048370361328125,-0.9997406005859375,1
1571527744.830447,195,0,74605.847595625,0.010650634765625,-0.0057525634765625,-0.999847412109375,1
1571527744.85067,196,0,74605.86759162501,0.0111083984375,-0.00531005859375,-0.9979400634765625,1
1571527744.885941,197,0,74605.88758762501,0.010589599609375,-0.005096435546875,-1.000106811523438,1
1571527744.890466,198,0,74605.907583625,0.0108489990234375,-0.00555419921875,-0.99951171875,1
1571527744.91061,199,0,74605.927579625,0.011138916015625,-0.0048675537109375,-0.9999847412109375,1
1571527744.930441,200,0,74605.947575625,0.0110015869140625,-0.0050811767578125,-0.9998626708984375,1
1571527744.950392,201,0,74605.96757162501,0.0103302001953125,-0.00537109375,-0.99945068359375,1
1571527744.970415,202,0,74605.98756762501,0.0112762451171875,-0.00604248046875,-1.000152587890625,1
1571527745.006577,203,0,74606.00756362501,0.011444091796875,-0.0050201416015625,-0.9986724853515625,1
1571527745.010366,204,0,74606.02755862501,0.01104736328125,-0.0047607421875,-0.99896240234375,1
1571527745.030663,205,0,74606.04755462501,0.0103607177734375,-0.0044708251953125,-0.999847412109375,1
1571527745.050435,206,0,74606.06755062501,0.010589599609375,-0.005218505859375,-0.9998779296875,1
1571527745.070346,207,0,74606.087546625,0.0109100341796875,-0.0060577392578125,-0.9992523193359375,1
1571527745.090565,208,0,74606.107542625,0.01123046875,-0.0061798095703125,-0.999420166015625,1
1571527745.126016,209,0,74606.12753862501,0.0109100341796875,-0.0047607421875,-0.9997100830078125,1
1571527745.130248,210,0,74606.14753462501,0.0106201171875,-0.004913330078125,-0.9999237060546875,1
1571527745.15078,211,0,74606.16753062501,0.011077880859375,-0.0046234130859375,-0.999755859375,1
1571527745.170191,212,0,74606.187526625,0.010528564453125,-0.0050506591796875,-0.9994659423828125,1
1571527745.19036,213,0,74606.207522625,0.0113067626953125,-0.00518798828125,-0.9996337890625,1
1571527745.210653,214,0,74606.227518625,0.010711669921875,-0.0056304931640625,-0.9995269775390625,1
1571527745.246486,215,0,74606.24751462501,0.011138916015625,-0.0046844482421875,-0.99945068359375,1
1571527745.250283,216,0,74606.26751062501,0.0111236572265625,-0.005096435546875,-1.000091552734375,1
1571527745.270345,217,0,74606.287506625,0.0106353759765625,-0.00439453125,-0.99951171875,1
1571527745.290388,218,0,74606.307502625,0.0113525390625,-0.004638671875,-0.999176025390625,1
1571527745.31053,219,0,74606.327498625,0.0104217529296875,-0.0058135986328125,-0.99993896484375,1
1571527745.330373,220,0,74606.34749462501,0.011016845703125,-0.0057525634765625,-0.999359130859375,1
1571527745.367809,221,0,74606.36749062501,0.0104522705078125,-0.00555419921875,-0.99969482421875,1
1571527745.37022,222,0,74606.38748654167,0.0108184814453125,-0.00518798828125,-0.9988250732421875,1
1571527745.390319,223,0,74606.40748254168,0.010986328125,-0.0047454833984375,-0.9991302490234375,1
1571527745.410395,224,0,74606.42747854168,0.0112457275390625,-0.004974365234375,-0.99945068359375,1
1571527745.43041,225,0,74606.44747454167,0.0108642578125,-0.0054473876953125,-0.9994354248046875,1
1571527745.450377,226,0,74606.46747054167,0.010467529296875,-0.0058135986328125,-0.99993896484375,1
1571527745.470265,227,0,74606.48746654167,0.0113677978515625,-0.004730224609375,-0.9998779296875,1
1571527745.490292,228,0,74606.50746254167,0.0103759765625,-0.005218505859375,-0.9999847412109375,1
1571527745.510624,229,0,74606.52745854168,0.0107574462890625,-0.004180908203125,-0.9994049072265625,1
1571527745.552728,230,0,74606.54745454167,0.0111083984375,-0.0050048828125,-1.000152587890625,1
1571527745.553308,231,0,74606.56745054167,0.0105133056640625,-0.0054779052734375,-0.9986419677734375,1
1571527745.570151,232,0,74606.58744654167,0.0108184814453125,-0.004486083984375,-1.000320434570312,1
1571527745.592356,233,0,74606.60744254167,0.010162353515625,-0.0051422119140625,-0.9997100830078125,1
1571527745.610674,234,0,74606.62743854168,0.01068115234375,-0.0048828125,-1.000381469726562,1
1571527745.630286,235,0,74606.64743454166,0.0103607177734375,-0.0041351318359375,-0.999298095703125,1
1571527745.650398,236,0,74606.66743054167,0.01080322265625,-0.005462646484375,-0.9991455078125,1
1571527745.670256,237,0,74606.68742654167,0.0107269287109375,-0.005218505859375,-1.000778198242188,1
1571527745.690517,238,0,74606.70742254167,0.0115509033203125,-0.00494384765625,-0.9989776611328125,1
1571527745.730546,239,0,74606.72741854168,0.010833740234375,-0.00537109375,-1.00048828125,1
1571527745.731027,240,0,74606.74741454168,0.0107421875,-0.003997802734375,-0.9990692138671875,1
1571527745.750126,241,0,74606.76741054167,0.0105743408203125,-0.0046234130859375,-0.9996337890625,1
1571527745.775706,242,0,74606.78740654167,0.0109100341796875,-0.005096435546875,-0.999908447265625,1
1571527745.790103,243,0,74606.80740254167,0.01153564453125,-0.0052337646484375,-0.9996490478515625,1
1571527745.810286,244,0,74606.82739854167,0.010986328125,-0.0040435791015625,-0.9997100830078125,1
1571527745.830191,245,0,74606.84739454168,0.0107421875,-0.0045013427734375,-1.000625610351562,1
1571527745.85027,246,0,74606.86739054167,0.0106201171875,-0.005035400390625,-0.9998626708984375,1
1571527745.870309,247,0,74606.88738654167,0.0109100341796875,-0.005523681640625,-1.00048828125,1
1571527745.907389,248,0,74606.90738254167,0.0111541748046875,-0.0052642822265625,-0.998382568359375,1
1571527745.910087,249,0,74606.92737854167,0.010894775390625,-0.0053558349609375,-1.000213623046875,1
1571527745.930339,250,0,74606.94737454168,0.010406494140625,-0.00537109375,-0.999786376953125,1
1571527745.950193,251,0,74606.96737054166,0.0109100341796875,-0.0058746337890625,-0.9998931884765625,1
1571527745.97022,252,0,74606.98736654167,0.0112152099609375,-0.0054473876953125,-1.000213623046875,1
1571527745.990483,253,0,74607.00736254167,0.0115509033203125,-0.0045166015625,-0.9987640380859375,1
1571527746.029884,254,0,74607.02735754166,0.01116943359375,-0.0051116943359375,-0.9996490478515625,1
1571527746.029984,255,0,74607.04735354167,0.01141357421875,-0.0055389404296875,-1.000106811523438,1
1571527746.050214,256,0,74607.06734954167,0.010406494140625,-0.00518798828125,-0.999969482421875,1
1571527746.070034,257,0,74607.08734554167,0.0111846923828125,-0.0050201416015625,-0.9995574951171875,1
1571527746.090071,258,0,74607.10734154168,0.011199951171875,-0.0059356689453125,-1.000030517578125,1
1571527746.110462,259,0,74607.12733754166,0.01104736328125,-0.0052337646484375,-0.99896240234375,1
1571527746.145352,260,0,74607.14733354167,0.01043701171875,-0.004547119140625,-0.9994659423828125,1
1571527746.150002,261,0,74607.16732954167,0.0113067626953125,-0.0052032470703125,-0.9988861083984375,1
1571527746.170172,262,0,74607.18732554167,0.010955810546875,-0.005401611328125,-0.9991302490234375,1
1571527746.190188,263,0,74607.20732154167,0.010772705078125,-0.004486083984375,-0.9991455078125,1
1571527746.210324,264,0,74607.22731754168,0.0110015869140625,-0.0048370361328125,-1.000396728515625,1
1571527746.230402,265,0,74607.24731354167,0.01123046875,-0.0056610107421875,-0.9993133544921875,1
1571527746.269083,266,0,74607.26730954167,0.0106048583984375,-0.0048828125,-0.9998321533203125,1
1571527746.270065,267,0,74607.28730554167,0.010955810546875,-0.0047454833984375,-0.998748779296875,1
1571527746.290192,268,0,74607.30730154167,0.01092529296875,-0.0050201416015625,-0.999420166015625,1
1571527746.310378,269,0,74607.32729754168,0.0107421875,-0.005401611328125,-1.00006103515625,1
1571527746.330102,270,0,74607.34729354166,0.0118408203125,-0.0053253173828125,-0.998565673828125,1
1571527746.35032,271,0,74607.36728954167,0.01092529296875,-0.0049591064453125,-1.000747680664062,1
1571527746.387601,272,0,74607.38728579167,0.0112152099609375,-0.004669189453125,-0.999755859375,1
1571527746.390037,273,0,74607.40728179167,0.011260986328125,-0.004913330078125,-0.999603271484375,1
1571527746.410331,274,0,74607.42727779168,0.010711669921875,-0.004852294921875,-0.9994659423828125,1
1571527746.430101,275,0,74607.44727379167,0.01104736328125,-0.0051422119140625,-0.99957275390625,1
1571527746.450235,276,0,74607.46726979167,0.011077880859375,-0.005523681640625,-0.9991302490234375,1
1571527746.470279,277,0,74607.48726579167,0.0110015869140625,-0.0058135986328125,-1.000503540039062,1
1571527746.509521,278,0,74607.50726179167,0.010528564453125,-0.00482177734375,-0.999542236328125,1
1571527746.51011,279,0,74607.52725779168,0.0108489990234375,-0.0039520263671875,-1.000198364257812,1
1571527746.530177,280,0,74607.54725379166,0.0102691650390625,-0.004608154296875,-0.998748779296875,1
1571527746.550053,281,0,74607.56724979167,0.0102081298828125,-0.0052947998046875,-0.999755859375,1
1571527746.570282,282,0,74607.58724579167,0.011444091796875,-0.0048980712890625,-0.9999847412109375,1
1571527746.590246,283,0,74607.60724179167,0.0115814208984375,-0.0050506591796875,-0.999359130859375,1
1571527746.625347,284,0,74607.62723779168,0.010162353515625,-0.0043182373046875,-0.9997406005859375,1
1571527746.629904,285,0,74607.64723379168,0.0106964111328125,-0.004852294921875,-1.000244140625,1
1571527746.650043,286,0,74607.66722979167,0.010955810546875,-0.00518798828125,-0.999908447265625,1
1571527746.670025,287,0,74607.68722579167,0.0103302001953125,-0.00537109375,-0.9998321533203125,1
1571527746.690104,288,0,74607.70722179167,0.0106353759765625,-0.004486083984375,-0.9999847412109375,1
1571527746.710335,289,0,74607.72721779167,0.0115814208984375,-0.005950927734375,-0.999114990234375,1
1571527746.748233,290,0,74607.74721379168,0.011505126953125,-0.0052337646484375,-0.9998016357421875,1
1571527746.749975,291,0,74607.76720979167,0.0102386474609375,-0.0051422119140625,-0.9993133544921875,1
1571527746.770057,292,0,74607.78720579167,0.0106353759765625,-0.0042572021484375,-0.9992218017578125,1
1571527746.790007,293,0,74607.80720179167,0.0113372802734375,-0.0052642822265625,-1.000473022460938,1
1571527746.810086,294,0,74607.82719779167,0.0112762451171875,-0.00457763671875,-0.999664306640625,1
1571527746.830153,295,0,74607.84719379168,0.0114593505859375,-0.0054931640625,-1,1
1571527746.869528,296,0,74607.86718979166,0.01031494140625,-0.005462646484375,-0.9996795654296875,1
1571527746.869872,297,0,74607.88718579167,0.010223388671875,-0.0057220458984375,-0.9994659423828125,1
1571527746.890034,298,0,74607.90718179167,0.010650634765625,-0.0055084228515625,-0.99896240234375,1
1571527746.910042,299,0,74607.92717779167,0.0113372802734375,-0.0052032470703125,-0.999725341796875,1
1571527746.930169,300,0,74607.94717379168,0.010772705078125,-0.0047149658203125,-1.000762939453125,1
1571527746.95006,301,0,74607.96716979168,0.011077880859375,-0.0048065185546875,-0.99896240234375,1
1571527746.972949,302,0,74607.98716579167,0.010772705078125,-0.004486083984375,-1.000900268554688,1
1571527746.990086,303,0,74608.00716179167,0.0115966796875,-0.0058746337890625,-0.9990081787109375,1
1571527747.010249,304,0,74608.02715779167,0.009979248046875,-0.0049591064453125,-1.000167846679688,1
1571527747.047845,305,0,74608.04715379167,0.0110626220703125,-0.0049896240234375,-0.99951171875,1
1571527747.049801,306,0,74608.06714979168,0.0108795166015625,-0.00433349609375,-0.9996490478515625,1
1571527747.070117,307,0,74608.08714579167,0.0108642578125,-0.0048675537109375,-0.999359130859375,1
1571527747.089915,308,0,74608.10714179167,0.0108184814453125,-0.0063018798828125,-1.000030517578125,1
1571527747.110131,309,0,74608.12713779167,0.011199951171875,-0.00567626953125,-0.999542236328125,1
1571527747.129968,310,0,74608.14713379167,0.011383056640625,-0.0050506591796875,-1.00018310546875,1
1571527747.167468,311,0,74608.16712879167,0.0117034912109375,-0.005035400390625,-0.999542236328125,1
1571527747.169725,312,0,74608.18712479167,0.01068115234375,-0.0052642822265625,-1.00091552734375,1
1571527747.189935,313,0,74608.20712079167,0.0107269287109375,-0.0052490234375,-0.9989166259765625,1
1571527747.210046,314,0,74608.22711679168,0.0109710693359375,-0.00445556640625,-0.9996337890625,1
1571527747.229874,315,0,74608.24711279167,0.011260986328125,-0.0059967041015625,-0.9996337890625,1
1571527747.250062,316,0,74608.26710879167,0.0111541748046875,-0.00518798828125,-0.9997406005859375,1
1571527747.283726,317,0,74608.28710479167,0.0107879638671875,-0.00518798828125,-1.00006103515625,1
1571527747.289742,318,0,74608.30710079167,0.0104827880859375,-0.0043792724609375,-1.0006103515625,1
1571527747.310087,319,0,74608.32709679168,0.011444091796875,-0.0048065185546875,-0.99932861328125,1
1571527747.329829,320,0,74608.34709279166,0.0109405517578125,-0.0045623779296875,-0.9998931884765625,1
1571527747.34992,321,0,74608.36708879167,0.0106201171875,-0.0048828125,-0.998260498046875,1
1571527747.370157,322,0,74608.38708479167,0.0115203857421875,-0.0048370361328125,-0.9997100830078125,1
1571527747.408842,323,0,74608.40708079167,0.0108795166015625,-0.0050811767578125,-0.99932861328125,1
1571527747.409709,324,0,74608.42707679168,0.0101165771484375,-0.00494384765625,-0.9991912841796875,1
1571527747.42991,325,0,74608.44707279168,0.010955810546875,-0.00408935546875,-1.000213623046875,1
1571527747.449844,326,0,74608.46706879167,0.0106353759765625,-0.005706787109375,-0.9990386962890625,1
1571527747.469805,327,0,74608.48706479167,0.0102691650390625,-0.004547119140625,-0.9986114501953125,1
1571527747.490057,328,0,74608.50706079167,0.0110321044921875,-0.005340576171875,-0.9994964599609375,1
1571527747.523777,329,0,74608.52705679167,0.011260986328125,-0.00421142578125,-0.999298095703125,1
1571527747.529705,330,0,74608.54705279168,0.0101470947265625,-0.005035400390625,-0.998565673828125,1
1571527747.549875,331,0,74608.56704879167,0.0112457275390625,-0.0056610107421875,-1.000274658203125,1
1571527747.569892,332,0,74608.58704479167,0.010467529296875,-0.0043182373046875,-0.9996795654296875,1
1571527747.589782,333,0,74608.60704079167,0.010894775390625,-0.00518798828125,-0.9997406005859375,1
1571527747.610141,334,0,74608.62703679167,0.0111541748046875,-0.004791259765625,-0.99957275390625,1
1571527747.645185,335,0,74608.64703279168,0.010833740234375,-0.0050811767578125,-1.000167846679688,1
1571527747.649624,336,0,74608.66702879166,0.011383056640625,-0.004547119140625,-0.998931884765625,1
1571527747.669866,337,0,74608.68702479167,0.0105743408203125,-0.0060882568359375,-0.9992828369140625,1
1571527747.690074,338,0,74608.70702079167,0.0110626220703125,-0.0050811767578125,-0.999603271484375,1
1571527747.70998,339,0,74608.72701679167,0.0115814208984375,-0.0042724609375,-1.00030517578125,1
1571527747.729945,340,0,74608.74701279167,0.010345458984375,-0.0052032470703125,-0.998626708984375,1
1571527747.769653,341,0,74608.76700879168,0.0106964111328125,-0.004302978515625,-0.9992523193359375,1
1571527747.769805,342,0,74608.78700479167,0.0116119384765625,-0.0041656494140625,-1.00006103515625,1
1571527747.789847,343,0,74608.80700079167,0.0108795166015625,-0.0053253173828125,-0.999114990234375,1
1571527747.809878,344,0,74608.82699679167,0.010589599609375,-0.0043792724609375,-1.000091552734375,1
1571527747.829938,345,0,74608.84699279167,0.011260986328125,-0.00421142578125,-0.9998016357421875,1
1571527747.849995,346,0,74608.86698879168,0.0115814208984375,-0.00469970703125,-0.9989471435546875,1
1571527747.887186,347,0,74608.88698479166,0.0102691650390625,-0.0051727294921875,-1.000320434570312,1
1571527747.889616,348,0,74608.90698079167,0.010955810546875,-0.00494384765625,-1.000289916992188,1
1571527747.909918,349,0,74608.92697679167,0.0101165771484375,-0.0048370361328125,-0.9995269775390625,1
1571527747.929857,350,0,74608.94697279167,0.01141357421875,-0.00506591796875,-0.99957275390625,1
1571527747.94977,351,0,74608.96696879168,0.011474609375,-0.0045623779296875,-0.9994659423828125,1
1571527747.969864,352,0,74608.98696479166,0.0114288330078125,-0.0047607421875,-0.9991912841796875,1
1571527748.011167,353,0,74609.00696079167,0.0101776123046875,-0.0048065185546875,-0.99951171875,1
1571527748.011722,354,0,74609.02695679167,0.010986328125,-0.0057525634765625,-1.0003662109375,1
1571527748.029919,355,0,74609.04695279167,0.0103302001953125,-0.0053253173828125,-0.998992919921875,1
1571527748.049662,356,0,74609.06694879167,0.010894775390625,-0.0048370361328125,-0.99951171875,1
1571527748.06974,357,0,74609.08694479168,0.01116943359375,-0.0050506591796875,-0.9989471435546875,1
1571527748.089903,358,0,74609.10694079167,0.01068115234375,-0.0045623779296875,-0.9995574951171875,1
1571527748.12586,359,0,74609.12693679167,0.0102996826171875,-0.0048828125,-0.999481201171875,1
1571527748.129667,360,0,74609.14693279167,0.010040283203125,-0.00616455078125,-0.999908447265625,1
1571527748.149857,361,0,74609.16692879167,0.011016845703125,-0.0050201416015625,-1,1
1571527748.16958,362,0,74609.18692479168,0.0108642578125,-0.0048980712890625,-0.999542236328125,1
1571527748.18978,363,0,74609.20692079166,0.0112152099609375,-0.004638671875,-0.9990997314453125,1
1571527748.209989,364,0,74609.22691679167,0.01043701171875,-0.0052032470703125,-0.9997711181640625,1
1571527748.248067,365,0,74609.24691279167,0.010833740234375,-0.004638671875,-0.9993896484375,1
1571527748.249629,366,0,74609.26690879167,0.011474609375,-0.0052032470703125,-0.999664306640625,1
1571527748.269506,367,0,74609.28690479168,0.0106658935546875,-0.0048828125,-0.9985198974609375,1
1571527748.28955,368,0,74609.30690079168,0.0101165771484375,-0.005126953125,-0.99993896484375,1
1571527748.309837,369,0,74609.32689679167,0.0110321044921875,-0.0050506591796875,-0.99951171875,1
1571527748.330005,370,0,74609.34689279167,0.010589599609375,-0.005645751953125,-1.00030517578125,1
1571527748.365503,371,0,74609.36688879167,0.0106353759765625,-0.0053863525390625,-0.99908447265625,1
1571527748.369496,372,0,74609.38688479167,0.01055908203125,-0.00494384765625,-0.9991912841796875,1
1571527748.389716,373,0,74609.40688079168,0.0110931396484375,-0.005126953125,-0.999664306640625,1
1571527748.409757,374,0,74609.42687679167,0.0107421875,-0.0051116943359375,-1.000289916992188,1
1571527748.429693,375,0,74609.44687179168,0.0107269287109375,-0.0051422119140625,-0.999908447265625,1
1571527748.449813,376,0,74609.46686779168,0.0112152099609375,-0.0052642822265625,-0.9987945556640625,1
1571527748.489255,377,0,74609.48686379167,0.0112762451171875,-0.005096435546875,-0.998626708984375,1
1571527748.489385,378,0,74609.50685979167,0.0102996826171875,-0.005279541015625,-0.9993133544921875,1
1571527748.509634,379,0,74609.52685579167,0.0107269287109375,-0.0046234130859375,-0.9994354248046875,1
1571527748.529623,380,0,74609.54685179167,0.0108642578125,-0.005340576171875,-0.99945068359375,1
1571527748.549728,381,0,74609.56684779168,0.0109710693359375,-0.00433349609375,-0.999114990234375,1
1571527748.569827,382,0,74609.58684379167,0.010955810546875,-0.006103515625,-0.9997406005859375,1
1571527748.609132,383,0,74609.60683979167,0.0107879638671875,-0.0049896240234375,-0.999969482421875,1
1571527748.609495,384,0,74609.62683579167,0.010528564453125,-0.0052947998046875,-1.000518798828125,1
1571527748.629729,385,0,74609.64683179167,0.011566162109375,-0.0048675537109375,-0.99932861328125,1
1571527748.649518,386,0,74609.66682779168,0.010986328125,-0.0046844482421875,-0.9986724853515625,1
1571527748.669559,387,0,74609.68682379166,0.010955810546875,-0.00408935546875,-0.999420166015625,1
1571527748.689792,388,0,74609.70681979167,0.011077880859375,-0.0056304931640625,-0.9996185302734375,1
1571527748.724903,389,0,74609.72681579167,0.0107421875,-0.00537109375,-0.9996795654296875,1
1571527748.729422,390,0,74609.74681179167,0.0118560791015625,-0.0041961669921875,-0.9999237060546875,1
1571527748.749615,391,0,74609.76680779168,0.01031494140625,-0.0045166015625,-0.9996185302734375,1
1571527748.769531,392,0,74609.78680379168,0.010650634765625,-0.0048980712890625,-0.999176025390625,1
1571527748.789553,393,0,74609.80679979167,0.01116943359375,-0.0043487548828125,-0.999725341796875,1
1571527748.809961,394,0,74609.82679579167,0.0102996826171875,-0.005584716796875,-0.999969482421875,1
1571527748.848925,395,0,74609.84679179167,0.010986328125,-0.0042572021484375,-1.00018310546875,1
1571527748.849647,396,0,74609.86678779167,0.0108795166015625,-0.00457763671875,-0.9993438720703125,1
1571527748.869574,397,0,74609.88678379168,0.0105743408203125,-0.0053863525390625,-0.9993133544921875,1
1571527748.889405,398,0,74609.90677979167,0.010711669921875,-0.0047454833984375,-0.999237060546875,1
1571527748.909629,399,0,74609.92677579167,0.0105438232421875,-0.0048370361328125,-0.9995880126953125,1
1571527748.929545,400,0,74609.94677179167,0.011138916015625,-0.00518798828125,-1.000579833984375,1
1571527748.968166,401,0,74609.96676779167,0.0118865966796875,-0.0042572021484375,-0.99847412109375,1
1571527748.969326,402,0,74609.98676379168,0.0112457275390625,-0.00531005859375,-0.9997711181640625,1
1571527748.989547,403,0,74610.00675979166,0.010955810546875,-0.0054168701171875,-0.99957275390625,1
1571527749.009526,404,0,74610.02675579167,0.01104736328125,-0.0054931640625,-0.999481201171875,1
1571527749.029456,405,0,74610.04675179167,0.0116729736328125,-0.0047454833984375,-0.9990386962890625,1
1571527749.049523,406,0,74610.06674779167,0.0107269287109375,-0.0043487548828125,-0.9995574951171875,1
1571527749.09065,407,0,74610.08674379167,0.01092529296875,-0.00482177734375,-1.000534057617188,1
1571527749.090739,408,0,74610.10673979168,0.01055908203125,-0.0054473876953125,-1.000076293945312,1
1571527749.109523,409,0,74610.12673579167,0.0107421875,-0.00628662109375,-0.9997711181640625,1
1571527749.129421,410,0,74610.14673179167,0.01031494140625,-0.0052032470703125,-1.000381469726562,1
1571527749.149511,411,0,74610.16672779167,0.01129150390625,-0.0053863525390625,-0.9992218017578125,1
1571527749.169271,412,0,74610.18672379167,0.0107269287109375,-0.0037078857421875,-1.000778198242188,1
1571527749.189648,413,0,74610.20671979168,0.0109405517578125,-0.0044403076171875,-1.000198364257812,1
1571527749.209568,414,0,74610.22671579166,0.010894775390625,-0.0038604736328125,-0.999786376953125,1
1571527749.229781,415,0,74610.24671179167,0.011138916015625,-0.0052032470703125,-0.9990081787109375,1
1571527749.271449,416,0,74610.26670779167,0.0106658935546875,-0.006011962890625,-0.9997406005859375,1
1571527749.271652,417,0,74610.28670379167,0.0104217529296875,-0.006195068359375,-1.000686645507812,1
1571527749.289459,418,0,74610.30669979168,0.010986328125,-0.0050048828125,-1.000335693359375,1
1571527749.30944,419,0,74610.32669579166,0.010772705078125,-0.004425048828125,-0.9994049072265625,1
1571527749.329523,420,0,74610.34669179167,0.0113983154296875,-0.004486083984375,-0.9989471435546875,1
1571527749.349517,421,0,74610.36668779167,0.011322021484375,-0.0040130615234375,-1,1
1571527749.388642,422,0,74610.38668725001,0.0111846923828125,-0.004730224609375,-0.9996185302734375,1
1571527749.389435,423,0,74610.40668325001,0.0102691650390625,-0.0054168701171875,-0.999908447265625,1
1571527749.40937,424,0,74610.42667925,0.010955810546875,-0.0060577392578125,-0.99908447265625,1
1571527749.429552,425,0,74610.44667525,0.010986328125,-0.0051116943359375,-1.000076293945312,1
1571527749.449509,426,0,74610.46667125,0.0099029541015625,-0.0047760009765625,-0.9998321533203125,1
1571527749.470407,427,0,74610.48666725001,0.0117034912109375,-0.0048828125,-0.999053955078125,1
1571527749.504834,428,0,74610.50666325001,0.010772705078125,-0.0048675537109375,-1.00018310546875,1
1571527749.509393,429,0,74610.52665925,0.011138916015625,-0.0037078857421875,-0.9994049072265625,1
1571527749.529502,430,0,74610.54665525,0.0108795166015625,-0.00445556640625,-0.9994659423828125,1
1571527749.549392,431,0,74610.56665125,0.0108642578125,-0.0045928955078125,-0.9996795654296875,1
1571527749.569409,432,0,74610.58664725001,0.0114288330078125,-0.0059051513671875,-0.9994964599609375,1
1571527749.589655,433,0,74610.60664325001,0.0114898681640625,-0.0045166015625,-0.998748779296875,1
1571527749.627873,434,0,74610.62663925001,0.01055908203125,-0.0044403076171875,-1.000213623046875,1
1571527749.62927,435,0,74610.64663525,0.0111236572265625,-0.00457763671875,-0.9990081787109375,1
1571527749.64962,436,0,74610.66663125,0.011993408203125,-0.0048828125,-1.000335693359375,1
1571527749.669246,437,0,74610.68662725,0.010589599609375,-0.0048675537109375,-0.9985504150390625,1
1571527749.68938,438,0,74610.70662325001,0.0118865966796875,-0.004486083984375,-0.9993896484375,1
1571527749.709572,439,0,74610.72661925001,0.0106048583984375,-0.0047607421875,-0.999481201171875,1
1571527749.745272,440,0,74610.74661525,0.0113372802734375,-0.0050048828125,-0.9989166259765625,1
1571527749.749255,441,0,74610.76661125,0.0113067626953125,-0.0047149658203125,-1.000717163085938,1
1571527749.76937,442,0,74610.78660725,0.01080322265625,-0.004791259765625,-1.000198364257812,1
1571527749.789272,443,0,74610.80660325001,0.010498046875,-0.005096435546875,-0.999298095703125,1
1571527749.809241,444,0,74610.82659925001,0.0118408203125,-0.00531005859375,-0.9990997314453125,1
1571527749.829638,445,0,74610.84659525,0.0110015869140625,-0.005340576171875,-0.99981689453125,1
1571527749.867275,446,0,74610.86659125,0.011138916015625,-0.004486083984375,-1.00042724609375,1
1571527749.869246,447,0,74610.88658725,0.0112457275390625,-0.0032196044921875,-0.9994049072265625,1
1571527749.889293,448,0,74610.90658325001,0.0114898681640625,-0.00494384765625,-0.9985504150390625,1
1571527749.909188,449,0,74610.92657925001,0.0106353759765625,-0.0042266845703125,-0.99896240234375,1
1571527749.929453,450,0,74610.94657525001,0.011322021484375,-0.0053863525390625,-0.9998626708984375,1
1571527749.949403,451,0,74610.96657125,0.010894775390625,-0.005096435546875,-0.9993133544921875,1
1571527749.985698,452,0,74610.98656725,0.0107879638671875,-0.004974365234375,-0.9986114501953125,1
1571527749.989271,453,0,74611.00656325,0.0107879638671875,-0.0059051513671875,-0.999176025390625,1
1571527750.009377,454,0,74611.02655925001,0.0103302001953125,-0.004547119140625,-0.9999847412109375,1
1571527750.029239,455,0,74611.04655525001,0.0110931396484375,-0.004302978515625,-0.9989776611328125,1
1571527750.04948,456,0,74611.06655125,0.011383056640625,-0.0051422119140625,-0.9994049072265625,1
1571527750.069459,457,0,74611.08654625001,0.0115509033203125,-0.0057525634765625,-0.9994964599609375,1
1571527750.109244,458,0,74611.10654325,0.011566162109375,-0.004547119140625,-0.9955291748046875,1
1571527750.109387,459,0,74611.12653925001,0.0108184814453125,-0.003570556640625,-1.00396728515625,1
1571527750.129447,460,0,74611.14653425,0.0113067626953125,-0.003997802734375,-0.99749755859375,1
1571527750.149325,461,0,74611.16653125001,0.0107879638671875,-0.0052947998046875,-0.9999237060546875,1
1571527750.169219,462,0,74611.18652625001,0.01092529296875,-0.005828857421875,-1.001800537109375,1
1571527750.189552,463,0,74611.20652225001,0.0107879638671875,-0.006317138671875,-0.9978790283203125,1
1571527750.229349,464,0,74611.22651825,0.0107269287109375,-0.0050201416015625,-1.001190185546875,1
1571527750.229431,465,0,74611.24651425,0.0111083984375,-0.0042724609375,-0.998931884765625,1
1571527750.249574,466,0,74611.26651025,0.0109710693359375,-0.0039520263671875,-0.9998321533203125,1
1571527750.269124,467,0,74611.28650625001,0.0109100341796875,-0.0050811767578125,-0.9996185302734375,1
1571527750.28918,468,0,74611.30650225001,0.0106353759765625,-0.0048828125,-0.998931884765625,1
1571527750.309322,469,0,74611.32649825001,0.0106048583984375,-0.0054473876953125,-1.000503540039062,1
1571527750.344762,470,0,74611.34649425,0.0113067626953125,-0.0045623779296875,-0.9984130859375,1
1571527750.349024,471,0,74611.36649025,0.0108642578125,-0.00469970703125,-0.999847412109375,1
1571527750.369371,472,0,74611.38648279167,0.0109710693359375,-0.004852294921875,-0.9995269775390625,1
1571527750.389143,473,0,74611.40647879167,0.01104736328125,-0.0046844482421875,-1.000091552734375,1
1571527750.409175,474,0,74611.42647479167,0.0107574462890625,-0.0047454833984375,-0.9997406005859375,1
1571527750.429427,475,0,74611.44647079168,0.01068115234375,-0.00555419921875,-0.9995269775390625,1
1571527750.468955,476,0,74611.46646679167,0.0111236572265625,-0.00592041015625,-1.001083374023438,1
1571527750.469462,477,0,74611.48646279167,0.010223388671875,-0.0037841796875,-0.999908447265625,1
1571527750.489141,478,0,74611.50645879167,0.0114593505859375,-0.0042877197265625,-0.998626708984375,1
1571527750.515011,479,0,74611.52645479167,0.0106201171875,-0.004302978515625,-0.99932861328125,1
1571527750.529044,480,0,74611.54645079168,0.01129150390625,-0.0054168701171875,-1.000076293945312,1
1571527750.549164,481,0,74611.56644679166,0.0104217529296875,-0.0056304931640625,-0.998931884765625,1
1571527750.569136,482,0,74611.58644279167,0.010498046875,-0.005157470703125,-0.9995269775390625,1
1571527750.589432,483,0,74611.60643879167,0.0111541748046875,-0.0051422119140625,-0.9988861083984375,1
1571527750.609558,484,0,74611.62643479167,0.0106048583984375,-0.0046234130859375,-0.99896240234375,1
1571527750.650945,485,0,74611.64643079168,0.010833740234375,-0.0037689208984375,-0.9996490478515625,1
1571527750.651393,486,0,74611.66642679166,0.0113372802734375,-0.0042266845703125,-0.9997406005859375,1
1571527750.669183,487,0,74611.68642279167,0.011016845703125,-0.0056915283203125,-0.9993896484375,1
1571527750.695616,488,0,74611.70641879167,0.011383056640625,-0.0061492919921875,-0.99993896484375,1
1571527750.709007,489,0,74611.72641479167,0.0110321044921875,-0.0050201416015625,-0.9993438720703125,1
1571527750.72927,490,0,74611.74641079167,0.01104736328125,-0.0052947998046875,-0.9991607666015625,1
1571527750.749067,491,0,74611.76640679168,0.011322021484375,-0.004913330078125,-0.9992523193359375,1
1571527750.769355,492,0,74611.78640279167,0.011016845703125,-0.0038909912109375,-0.9993133544921875,1
1571527750.789173,493,0,74611.80639879167,0.011016845703125,-0.0055389404296875,-0.9995880126953125,1
1571527750.830294,494,0,74611.82639479167,0.0103759765625,-0.00543212890625,-0.9987030029296875,1
1571527750.830778,495,0,74611.84639079167,0.011077880859375,-0.0062103271484375,-0.9995269775390625,1
1571527750.849199,496,0,74611.86638679168,0.010498046875,-0.0057525634765625,-1.000228881835938,1
1571527750.87652,497,0,74611.88638279166,0.01080322265625,-0.004638671875,-0.9990997314453125,1
1571527750.888982,498,0,74611.90637879167,0.0112152099609375,-0.0041656494140625,-0.998992919921875,1
1571527750.909064,499,0,74611.92637479167,0.010650634765625,-0.0052490234375,-1,1
1571527750.929312,500,0,74611.94637079167,0.0111846923828125,-0.0063018798828125,-1.000411987304688,1
1571527750.949172,501,0,74611.96636679168,0.0105133056640625,-0.00543212890625,-0.999908447265625,1
1571527750.969231,502,0,74611.98636279168,0.0108795166015625,-0.0050811767578125,-0.9994659423828125,1
1571527751.010827,503,0,74612.00635879167,0.01080322265625,-0.0037384033203125,-1.000106811523438,1
1571527751.011058,504,0,74612.02635479167,0.011383056640625,-0.005279541015625,-1.000030517578125,1
1571527751.029332,505,0,74612.04635079167,0.0112762451171875,-0.005859375,-0.99957275390625,1
1571527751.049034,506,0,74612.06634679167,0.0102996826171875,-0.0052337646484375,-0.9999847412109375,1
1571527751.069126,507,0,74612.08634279168,0.0106201171875,-0.0050048828125,-1.0006103515625,1
1571527751.089226,508,0,74612.10633879167,0.011322021484375,-0.0048065185546875,-0.9993896484375,1
1571527751.128356,509,0,74612.12633479167,0.011474609375,-0.003692626953125,-0.999114990234375,1
1571527751.128993,510,0,74612.14633079167,0.0115814208984375,-0.0042724609375,-1.00048828125,1
1571527751.149259,511,0,74612.16632679167,0.0109405517578125,-0.00469970703125,-0.99945068359375,1
1571527751.168905,512,0,74612.18632279168,0.010833740234375,-0.005889892578125,-0.99871826171875,1
1571527751.188997,513,0,74612.20631879166,0.0113067626953125,-0.0048980712890625,-0.999908447265625,1
1571527751.209479,514,0,74612.22631479167,0.0109710693359375,-0.00604248046875,-0.9995269775390625,1
1571527751.246783,515,0,74612.24631079167,0.01043701171875,-0.003570556640625,-0.99981689453125,1
1571527751.248834,516,0,74612.26630679167,0.010955810546875,-0.004638671875,-1.000289916992188,1
1571527751.268872,517,0,74612.28630279168,0.0111236572265625,-0.004669189453125,-0.9994964599609375,1
1571527751.288856,518,0,74612.30629879168,0.0107574462890625,-0.0045623779296875,-0.99932861328125,1
1571527751.309002,519,0,74612.32629479167,0.011505126953125,-0.00421142578125,-0.99993896484375,1
1571527751.329018,520,0,74612.34629079167,0.0111236572265625,-0.0054779052734375,-0.999603271484375,1
1571527751.367655,521,0,74612.36628679167,0.0107421875,-0.005584716796875,-1.000045776367188,1
1571527751.368784,522,0,74612.38628262501,0.0103607177734375,-0.00537109375,-0.999053955078125,1
1571527751.388965,523,0,74612.406278625,0.0102691650390625,-0.004364013671875,-0.999542236328125,1
1571527751.408962,524,0,74612.426274625,0.010711669921875,-0.004638671875,-0.999359130859375,1
1571527751.429157,525,0,74612.44627062501,0.011016845703125,-0.00457763671875,-0.9994354248046875,1
1571527751.449068,526,0,74612.46626662501,0.0111541748046875,-0.004425048828125,-0.9984283447265625,1
1571527751.487846,527,0,74612.48626262501,0.010986328125,-0.0062255859375,-0.9997100830078125,1
1571527751.48866,528,0,74612.506258625,0.0095672607421875,-0.005218505859375,-0.9995269775390625,1
1571527751.508937,529,0,74612.526254625,0.011016845703125,-0.005584716796875,-0.9986724853515625,1
1571527751.529223,530,0,74612.546250625,0.011260986328125,-0.0049285888671875,-0.999481201171875,1
1571527751.548995,531,0,74612.56624662501,0.011688232421875,-0.0035400390625,-0.99908447265625,1
1571527751.569093,532,0,74612.58624262501,0.01153564453125,-0.0027313232421875,-0.9985809326171875,1
1571527751.604352,533,0,74612.606238625,0.011016845703125,-0.0047607421875,-0.998687744140625,1
1571527751.60879,534,0,74612.626234625,0.0110931396484375,-0.0071258544921875,-0.9999847412109375,1
1571527751.629364,535,0,74612.646230625,0.0109405517578125,-0.00775146484375,-0.9987030029296875,1
1571527751.649092,536,0,74612.66622662501,0.0099029541015625,-0.005584716796875,-0.999786376953125,1
1571527751.668928,537,0,74612.68622262501,0.0106048583984375,-0.0035552978515625,-0.9995269775390625,1
1571527751.689026,538,0,74612.70621862501,0.0117340087890625,-0.0030975341796875,-0.9991302490234375,1
1571527751.728933,539,0,74612.726214625,0.0117340087890625,-0.0028839111328125,-1.000396728515625,1
1571527751.729017,540,0,74612.746210625,0.0113525390625,-0.0056915283203125,-1.0001220703125,1
1571527751.748999,541,0,74612.766206625,0.01043701171875,-0.00640869140625,-0.9991607666015625,1
1571527751.768872,542,0,74612.78620262501,0.0097808837890625,-0.00787353515625,-0.9996185302734375,1
1571527751.788954,543,0,74612.80619862501,0.0108489990234375,-0.0070037841796875,-1.000335693359375,1
1571527751.809139,544,0,74612.826194625,0.0109710693359375,-0.0046844482421875,-0.9996490478515625,1
1571527751.848969,545,0,74612.846190625,0.0113677978515625,-0.0029449462890625,-1.0001220703125,1
1571527751.849071,546,0,74612.86618562501,0.011474609375,-0.0029449462890625,-0.9996185302734375,1
1571527751.868873,547,0,74612.886181625,0.01171875,-0.004058837890625,-0.9996490478515625,1
1571527751.888843,548,0,74612.906177625,0.00994873046875,-0.0066680908203125,-1.000259399414062,1
1571527751.908824,549,0,74612.926173625,0.010650634765625,-0.0067138671875,-0.99896240234375,1
1571527751.929021,550,0,74612.94616962501,0.01092529296875,-0.005584716796875,-1.000503540039062,1
1571527751.965054,551,0,74612.96616562501,0.01153564453125,-0.00372314453125,-0.9989776611328125,1
1571527751.968661,552,0,74612.986161625,0.011077880859375,-0.00286865234375,-1.000213623046875,1
1571527751.988866,553,0,74613.006157625,0.01171875,-0.0032958984375,-0.998779296875,1
1571527752.008833,554,0,74613.026153625,0.0103759765625,-0.0059967041015625,-0.9995880126953125,1
1571527752.029021,555,0,74613.04614962501,0.0106201171875,-0.006256103515625,-1.000152587890625,1
1571527752.048822,556,0,74613.06614562501,0.0102691650390625,-0.0061492919921875,-0.9999542236328125,1
1571527752.084957,557,0,74613.086141625,0.0105133056640625,-0.0044708251953125,-0.999603271484375,1
1571527752.088638,558,0,74613.106137625,0.01129150390625,-0.0032806396484375,-0.9992523193359375,1
1571527752.108861,559,0,74613.126133625,0.011260986328125,-0.0032196044921875,-0.9998321533203125,1
1571527752.128808,560,0,74613.14612962501,0.0108795166015625,-0.0045318603515625,-1,1
1571527752.148845,561,0,74613.16612562501,0.0110015869140625,-0.0068359375,-0.9994354248046875,1
1571527752.168684,562,0,74613.18612162501,0.0107879638671875,-0.0059356689453125,-0.9994049072265625,1
1571527752.206342,563,0,74613.206117625,0.010284423828125,-0.005401611328125,-0.9997406005859375,1
1571527752.208564,564,0,74613.226113625,0.01123046875,-0.0023193359375,-0.9992828369140625,1
1571527752.228757,565,0,74613.246109625,0.0118255615234375,-0.0029144287109375,-1.000015258789062,1
1571527752.248727,566,0,74613.26610562501,0.01068115234375,-0.0041351318359375,-0.9991912841796875,1
1571527752.269806,567,0,74613.28610162501,0.010772705078125,-0.0069122314453125,-0.9990081787109375,1
1571527752.28904,568,0,74613.306097625,0.0103759765625,-0.0083160400390625,-1.000442504882812,1
1571527752.328508,569,0,74613.326093625,0.0103912353515625,-0.00775146484375,-0.9993896484375,1
1571527752.328668,570,0,74613.346089625,0.010467529296875,-0.0035858154296875,-0.9992523193359375,1
1571527752.348927,571,0,74613.36608562501,0.01141357421875,-0.0003662109375,-0.9994354248046875,1
1571527752.368793,572,0,74613.38608154167,0.01177978515625,-0.0020294189453125,-0.9998626708984375,1
1571527752.388756,573,0,74613.40607754167,0.0107421875,-0.0055999755859375,-0.9994049072265625,1
1571527752.408956,574,0,74613.42607354168,0.0107421875,-0.0083465576171875,-0.999481201171875,1
1571527752.44378,575,0,74613.44606954168,0.0101470947265625,-0.008636474609375,-0.9993438720703125,1
1571527752.448623,576,0,74613.46606554167,0.0108642578125,-0.005615234375,-0.9989776611328125,1
1571527752.468832,577,0,74613.48606154167,0.0113525390625,-0.0027313232421875,-0.9998016357421875,1
1571527752.488683,578,0,74613.50605754167,0.011627197265625,-0.0016937255859375,-0.9992828369140625,1
1571527752.508723,579,0,74613.52605354167,0.0122833251953125,-0.003143310546875,-1.000396728515625,1
1571527752.529081,580,0,74613.54604954168,0.0101776123046875,-0.0056915283203125,-0.9991302490234375,1
1571527752.569378,581,0,74613.56604554167,0.01019287109375,-0.0083465576171875,-0.9994659423828125,1
1571527752.569506,582,0,74613.58604154167,0.010772705078125,-0.007781982421875,-0.99951171875,1
1571527752.588718,583,0,74613.60603754167,0.0113983154296875,-0.0048675537109375,-1.00018310546875,1
1571527752.608675,584,0,74613.62603354167,0.0110015869140625,-0.0026397705078125,-0.998992919921875,1
1571527752.628789,585,0,74613.64602954168,0.0119476318359375,-0.0015869140625,-0.998687744140625,1
1571527752.649325,586,0,74613.66602554166,0.0109100341796875,-0.0038299560546875,-0.998992919921875,1
1571527752.685903,587,0,74613.68602154167,0.0111083984375,-0.007080078125,-1.000717163085938,1
1571527752.688611,588,0,74613.70601754167,0.010040283203125,-0.0076904296875,-0.9993743896484375,1
1571527752.708694,589,0,74613.72601354167,0.0109100341796875,-0.006744384765625,-0.9998321533203125,1
1571527752.72883,590,0,74613.74600954168,0.01165771484375,-0.003662109375,-1.000579833984375,1
1571527752.748823,591,0,74613.76600554168,0.0113372802734375,-0.0027923583984375,-0.9989471435546875,1
1571527752.768961,592,0,74613.78600154167,0.0103759765625,-0.0025177001953125,-0.999755859375,1
1571527752.806824,593,0,74613.80599754167,0.01080322265625,-0.005279541015625,-0.9993896484375,1
1571527752.808642,594,0,74613.82599354167,0.010101318359375,-0.0069732666015625,-1.000686645507812,1
1571527752.828679,595,0,74613.84598954167,0.0111083984375,-0.0069427490234375,-0.99951171875,1
1571527752.848862,596,0,74613.86598554168,0.0115966796875,-0.0045623779296875,-0.99945068359375,1
1571527752.868761,597,0,74613.88598154167,0.011444091796875,-0.0029296875,-0.9998016357421875,1
1571527752.888881,598,0,74613.90597754167,0.0110931396484375,-0.00244140625,-0.999603271484375,1
1571527752.929926,599,0,74613.92597354167,0.0108489990234375,-0.0042266845703125,-1.000106811523438,1
1571527752.930339,600,0,74613.94596954167,0.010650634765625,-0.0061798095703125,-0.9989471435546875,1
1571527752.948679,601,0,74613.96596554168,0.009918212890625,-0.0070648193359375,-0.9998016357421875,1
1571527752.97325,602,0,74613.98596154166,0.0106201171875,-0.00628662109375,-0.999053955078125,1
1571527752.988529,603,0,74614.00595754167,0.01104736328125,-0.0040130615234375,-1.00054931640625,1
1571527753.008607,604,0,74614.02595354167,0.011016845703125,-0.0029754638671875,-0.998443603515625,1
1571527753.028803,605,0,74614.04594954167,0.011138916015625,-0.00390625,-0.9997711181640625,1
1571527753.048809,606,0,74614.06594554168,0.0111236572265625,-0.0053253173828125,-0.9994659423828125,1
1571527753.068932,607,0,74614.08594154168,0.0109710693359375,-0.006256103515625,-1.00006103515625,1
1571527753.109077,608,0,74614.10593754167,0.011474609375,-0.0057220458984375,-0.99908447265625,1
1571527753.109174,609,0,74614.12593254168,0.01116943359375,-0.004058837890625,-0.9993896484375,1
1571527753.128805,610,0,74614.14592854166,0.011383056640625,-0.00482177734375,-0.9993743896484375,1
1571527753.148555,611,0,74614.16592454167,0.0106201171875,-0.004180908203125,-0.99981689453125,1
1571527753.168631,612,0,74614.18592054167,0.01129150390625,-0.005340576171875,-0.99951171875,1
1571527753.188816,613,0,74614.20591654167,0.0109710693359375,-0.00537109375,-0.99920654296875,1
1571527753.224797,614,0,74614.22591254167,0.010772705078125,-0.0061187744140625,-0.999176025390625,1
1571527753.228587,615,0,74614.24590854168,0.0107879638671875,-0.0056915283203125,-0.999969482421875,1
1571527753.248635,616,0,74614.26590454167,0.0105743408203125,-0.00439453125,-0.99957275390625,1
1571527753.268622,617,0,74614.28590054167,0.010894775390625,-0.0044097900390625,-0.9998779296875,1
1571527753.28856,618,0,74614.30589654167,0.0106353759765625,-0.0052947998046875,-1.000167846679688,1
1571527753.308765,619,0,74614.32589254167,0.011505126953125,-0.0055694580078125,-0.999237060546875,1
1571527753.348273,620,0,74614.34588854168,0.0100555419921875,-0.005859375,-0.999908447265625,1
1571527753.3484,621,0,74614.36588454166,0.010986328125,-0.0051116943359375,-0.9991455078125,1
1571527753.368548,622,0,74614.38587991668,0.0098876953125,-0.00543212890625,-0.998931884765625,1
1571527753.388408,623,0,74614.40587591667,0.010894775390625,-0.003570556640625,-0.99969482421875,1
1571527753.408495,624,0,74614.42587191667,0.0110626220703125,-0.0044097900390625,-0.9989166259765625,1
1571527753.428699,625,0,74614.44586791667,0.0108642578125,-0.0046539306640625,-1.000076293945312,1
1571527753.464008,626,0,74614.46586391667,0.0102996826171875,-0.0050506591796875,-0.9998779296875,1
1571527753.468289,627,0,74614.48585991668,0.0117950439453125,-0.00592041015625,-0.9985504150390625,1
1571527753.48857,628,0,74614.50585591666,0.0106201171875,-0.0055999755859375,-0.99981689453125,1
1571527753.508433,629,0,74614.52585191667,0.011260986328125,-0.00469970703125,-0.999847412109375,1
1571527753.528569,630,0,74614.54584791667,0.0107269287109375,-0.0033721923828125,-0.999786376953125,1
1571527753.548623,631,0,74614.56584391667,0.0110321044921875,-0.0043792724609375,-0.999542236328125,1
1571527753.584946,632,0,74614.58583991668,0.0117340087890625,-0.0045623779296875,-0.9998016357421875,1
1571527753.588333,633,0,74614.60583591668,0.0101165771484375,-0.00689697265625,-0.9995574951171875,1
1571527753.608477,634,0,74614.62583191667,0.0109710693359375,-0.004730224609375,-0.99951171875,1
1571527753.628541,635,0,74614.64582791667,0.0117645263671875,-0.0046844482421875,-0.999359130859375,1
1571527753.648481,636,0,74614.66582391667,0.0106048583984375,-0.0040740966796875,-0.99920654296875,1
1571527753.668777,637,0,74614.68581991667,0.009979248046875,-0.004730224609375,-0.9994659423828125,1
1571527753.707833,638,0,74614.70581591668,0.01031494140625,-0.0047760009765625,-0.9994354248046875,1
1571527753.708359,639,0,74614.72581191667,0.010162353515625,-0.005645751953125,-0.9997100830078125,1
1571527753.728498,640,0,74614.74580791667,0.0113983154296875,-0.005767822265625,-0.9993438720703125,1
1571527753.748395,641,0,74614.76580391667,0.01177978515625,-0.0052337646484375,-1.000106811523438,1
1571527753.76841,642,0,74614.78579991667,0.0109405517578125,-0.004241943359375,-0.9998016357421875,1
1571527753.788557,643,0,74614.80579591668,0.011260986328125,-0.00408935546875,-0.9989166259765625,1
1571527753.827428,644,0,74614.82579191666,0.0109405517578125,-0.004852294921875,-0.9994964599609375,1
1571527753.828288,645,0,74614.84578791667,0.0110015869140625,-0.0057220458984375,-0.99884033203125,1
1571527753.848511,646,0,74614.86578391667,0.0105133056640625,-0.0055084228515625,-1.00042724609375,1
1571527753.868436,647,0,74614.88577991667,0.010833740234375,-0.0052947998046875,-1.00048828125,1
1571527753.888448,648,0,74614.90577591668,0.01141357421875,-0.0055999755859375,-0.9984283447265625,1
1571527753.908561,649,0,74614.92577191668,0.010986328125,-0.00390625,-0.9998016357421875,1
1571527753.947092,650,0,74614.94576791667,0.0107574462890625,-0.003387451171875,-0.9997711181640625,1
1571527753.948365,651,0,74614.96576391667,0.0110626220703125,-0.00506591796875,-0.9986114501953125,1
1571527753.968435,652,0,74614.98575991667,0.010833740234375,-0.00543212890625,-1.000045776367188,1
1571527753.988274,653,0,74615.00575591667,0.010589599609375,-0.0054473876953125,-0.999755859375,1
1571527754.008321,654,0,74615.02575191668,0.0111846923828125,-0.0051116943359375,-0.9992218017578125,1
1571527754.028562,655,0,74615.04574791667,0.011260986328125,-0.00439453125,-0.99957275390625,1
1571527754.064192,656,0,74615.06574391667,0.010528564453125,-0.0042724609375,-0.999664306640625,1
1571527754.068268,657,0,74615.08573891668,0.01129150390625,-0.005279541015625,-0.999359130859375,1
1571527754.088391,658,0,74615.10573491667,0.0108184814453125,-0.0061798095703125,-1.001251220703125,1
1571527754.108289,659,0,74615.12573091667,0.010772705078125,-0.00634765625,-0.999176025390625,1
1571527754.128397,660,0,74615.14572691667,0.011138916015625,-0.0049285888671875,-0.999542236328125,1
1571527754.148722,661,0,74615.16572291667,0.0106201171875,-0.004241943359375,-1.000701904296875,1
1571527754.184526,662,0,74615.18571891668,0.0103607177734375,-0.003570556640625,-0.99932861328125,1
1571527754.188366,663,0,74615.20571491666,0.0104217529296875,-0.0045013427734375,-0.9995574951171875,1
1571527754.208341,664,0,74615.22571091667,0.010284423828125,-0.0064697265625,-1.0003662109375,1
1571527754.228486,665,0,74615.24570691667,0.0102691650390625,-0.006256103515625,-0.999481201171875,1
1571527754.248351,666,0,74615.26570291667,0.0106658935546875,-0.005615234375,-0.999603271484375,1
1571527754.268505,667,0,74615.28569891668,0.0103607177734375,-0.006195068359375,-0.9996185302734375,1
1571527754.307639,668,0,74615.30569491666,0.011474609375,-0.0038299560546875,-0.9993438720703125,1
1571527754.308314,669,0,74615.32569091667,0.011444091796875,-0.002960205078125,-0.999176025390625,1
1571527754.328392,670,0,74615.34568691667,0.0113677978515625,-0.004486083984375,-1.000213623046875,1
1571527754.355068,671,0,74615.36568291667,0.0106964111328125,-0.00482177734375,-0.999603271484375,1
1571527754.368198,672,0,74615.38567916668,0.0106048583984375,-0.0071868896484375,-0.9996490478515625,1
1571527754.388396,673,0,74615.40567516666,0.0102996826171875,-0.0066070556640625,-0.9984588623046875,1
1571527754.408246,674,0,74615.42567116667,0.009979248046875,-0.005706787109375,-1.00067138671875,1
1571527754.428194,675,0,74615.44566716667,0.0109710693359375,-0.0041046142578125,-1.000106811523438,1
1571527754.448777,676,0,74615.46566316667,0.01141357421875,-0.003082275390625,-0.999755859375,1
1571527754.488386,677,0,74615.48565916668,0.0113677978515625,-0.0034027099609375,-0.9988250732421875,1
1571527754.488469,678,0,74615.50565516666,0.01025390625,-0.0060272216796875,-0.9994049072265625,1
1571527754.50825,679,0,74615.52565116667,0.010772705078125,-0.007415771484375,-1.000396728515625,1
1571527754.528302,680,0,74615.54564716667,0.0111236572265625,-0.00689697265625,-0.9991302490234375,1
1571527754.548338,681,0,74615.56564316667,0.010955810546875,-0.0048370361328125,-1.000381469726562,1
1571527754.568269,682,0,74615.58563916667,0.01141357421875,-0.00238037109375,-1.000076293945312,1
1571527754.603901,683,0,74615.60563516668,0.011810302734375,-0.002471923828125,-0.999053955078125,1
1571527754.608162,684,0,74615.62563116667,0.0113067626953125,-0.0037994384765625,-0.999969482421875,1
1571527754.628179,685,0,74615.64562716667,0.010498046875,-0.0066680908203125,-0.999725341796875,1
1571527754.648536,686,0,74615.66562316667,0.01129150390625,-0.0069427490234375,-0.99981689453125,1
1571527754.66825,687,0,74615.68561916667,0.0112457275390625,-0.0057373046875,-0.99969482421875,1
1571527754.689087,688,0,74615.70561516668,0.0112457275390625,-0.0042266845703125,-0.9997406005859375,1
1571527754.727441,689,0,74615.72561116666,0.0109100341796875,-0.0027618408203125,-0.999969482421875,1
1571527754.728099,690,0,74615.74560716667,0.01116943359375,-0.0034027099609375,-0.9988861083984375,1
1571527754.748326,691,0,74615.76560316667,0.0111083984375,-0.0045928955078125,-1.000274658203125,1
1571527754.768198,692,0,74615.78559916667,0.01080322265625,-0.0066070556640625,-0.9989166259765625,1
1571527754.788208,693,0,74615.80559516668,0.0102691650390625,-0.006195068359375,-0.99957275390625,1
1571527754.808176,694,0,74615.82559116668,0.0116424560546875,-0.00555419921875,-1.000289916992188,1
1571527754.845547,695,0,74615.84558616667,0.0112152099609375,-0.004119873046875,-0.999908447265625,1
1571527754.848118,696,0,74615.86558216668,0.011749267578125,-0.0037384033203125,-1.000381469726562,1
1571527754.868226,697,0,74615.88557816666,0.0105743408203125,-0.004486083984375,-0.999420166015625,1
1571527754.88815,698,0,74615.90557416667,0.01019287109375,-0.006072998046875,-0.9995269775390625,1
1571527754.90818,699,0,74615.92557016667,0.010772705078125,-0.0066375732421875,-0.999298095703125,1
1571527754.928223,700,0,74615.94556616667,0.0110931396484375,-0.005584716796875,-0.99945068359375,1
1571527754.968203,701,0,74615.96556216668,0.0108184814453125,-0.0041656494140625,-0.9999847412109375,1
1571527754.968303,702,0,74615.98555816668,0.010711669921875,-0.0040130615234375,-0.999359130859375,1
1571527754.988152,703,0,74616.00555416667,0.01055908203125,-0.003509521484375,-1.000457763671875,1
1571527755.008002,704,0,74616.02555016667,0.010467529296875,-0.0053863525390625,-0.999786376953125,1
1571527755.028216,705,0,74616.04554616667,0.01104736328125,-0.0059051513671875,-1.000503540039062,1
1571527755.048361,706,0,74616.06554216667,0.01080322265625,-0.0062408447265625,-0.9984893798828125,1
1571527755.084421,707,0,74616.08553816668,0.0110931396484375,-0.00518798828125,-0.9994354248046875,1
1571527755.087945,708,0,74616.10553416667,0.0106201171875,-0.0043792724609375,-0.9996795654296875,1
1571527755.108268,709,0,74616.12553016667,0.0115203857421875,-0.0042877197265625,-0.9991607666015625,1
1571527755.128121,710,0,74616.14552616667,0.0108489990234375,-0.004119873046875,-0.9998626708984375,1
1571527755.148296,711,0,74616.16552216667,0.0104217529296875,-0.00537109375,-0.9998779296875,1
1571527755.168088,712,0,74616.18551816668,0.0106048583984375,-0.005950927734375,-0.9997711181640625,1
1571527755.207206,713,0,74616.20551416666,0.01104736328125,-0.0058135986328125,-1.00067138671875,1
1571527755.207861,714,0,74616.22551016667,0.0111846923828125,-0.0043792724609375,-0.9994659423828125,1
1571527755.228208,715,0,74616.24550616667,0.0112762451171875,-0.00433349609375,-1.000442504882812,1
1571527755.248139,716,0,74616.26550216667,0.011474609375,-0.0041656494140625,-0.9996490478515625,1
1571527755.268056,717,0,74616.28549816668,0.0109710693359375,-0.005828857421875,-0.998992919921875,1
1571527755.28913,718,0,74616.30549416668,0.0106353759765625,-0.0068359375,-1.000961303710938,1
1571527755.324855,719,0,74616.32549016667,0.010467529296875,-0.0064544677734375,-0.9989471435546875,1
1571527755.327858,720,0,74616.34548616667,0.0108489990234375,-0.005218505859375,-0.9985809326171875,1
1571527755.348215,721,0,74616.36548216667,0.0111541748046875,-0.003570556640625,-0.999664306640625,1
1571527755.368012,722,0,74616.38547816667,0.011260986328125,-0.004241943359375,-0.9990692138671875,1
1571527755.388192,723,0,74616.40547512501,0.011566162109375,-0.00506591796875,-1.000595092773438,1
1571527755.408265,724,0,74616.42547112501,0.0104522705078125,-0.0053863525390625,-0.9981689453125,1
1571527755.452197,725,0,74616.445467125,0.0110626220703125,-0.0055389404296875,-0.9994659423828125,1
1571527755.452287,726,0,74616.465463125,0.010711669921875,-0.006103515625,-1.000030517578125,1
1571527755.468221,727,0,74616.485459125,0.0110626220703125,-0.00537109375,-0.9994659423828125,1
1571527755.48806,728,0,74616.505454125,0.011505126953125,-0.0046234130859375,-1.000885009765625,1
1571527755.508062,729,0,74616.525450125,0.011077880859375,-0.004486083984375,-1.000030517578125,1
1571527755.528408,730,0,74616.545446125,0.0115814208984375,-0.0047149658203125,-1.000289916992188,1
1571527755.56812,731,0,74616.56544212501,0.0108184814453125,-0.00482177734375,-1.000015258789062,1
1571527755.568204,732,0,74616.58543812501,0.011749267578125,-0.004547119140625,-0.9990692138671875,1
1571527755.588104,733,0,74616.605434125,0.01153564453125,-0.0053863525390625,-1.000625610351562,1
1571527755.607936,734,0,74616.625430125,0.0110015869140625,-0.0054931640625,-0.9994964599609375,1
1571527755.628014,735,0,74616.645426125,0.0116119384765625,-0.0040130615234375,-0.998992919921875,1
1571527755.648234,736,0,74616.66542212501,0.011016845703125,-0.004974365234375,-0.9996185302734375,1
1571527755.686067,737,0,74616.68541812501,0.01129150390625,-0.00408935546875,-0.999725341796875,1
1571527755.687961,738,0,74616.705414125,0.0111083984375,-0.0044097900390625,-0.999420166015625,1
1571527755.708032,739,0,74616.725410125,0.01043701171875,-0.0050201416015625,-0.99993896484375,1
1571527755.728051,740,0,74616.745406125,0.0108795166015625,-0.0055084228515625,-0.998626708984375,1
1571527755.748165,741,0,74616.76540212501,0.0106658935546875,-0.0050201416015625,-1.001296997070312,1
1571527755.768214,742,0,74616.78539812501,0.011138916015625,-0.0043487548828125,-0.9990081787109375,1
1571527755.808165,743,0,74616.80539412501,0.011199951171875,-0.0044097900390625,-1.000045776367188,1
1571527755.808264,744,0,74616.825390125,0.0106353759765625,-0.0037994384765625,-0.999176025390625,1
1571527755.82799,745,0,74616.845386125,0.0107879638671875,-0.0057373046875,-0.99951171875,1
1571527755.847949,746,0,74616.865382125,0.0108184814453125,-0.0061492919921875,-1.0001220703125,1
1571527755.868024,747,0,74616.88537812501,0.0112762451171875,-0.0057373046875,-0.99993896484375,1
1571527755.887982,748,0,74616.90537412501,0.01092529296875,-0.0051422119140625,-0.9995574951171875,1
1571527755.908056,749,0,74616.925370125,0.010528564453125,-0.0049285888671875,-0.9999542236328125,1
1571527755.927937,750,0,74616.945366125,0.0103302001953125,-0.0030670166015625,-0.99951171875,1
1571527755.948208,751,0,74616.965362125,0.011749267578125,-0.00482177734375,-0.9986724853515625,1
1571527755.981078,752,0,74616.98535812501,0.0111846923828125,-0.0055389404296875,-1.000396728515625,1
1571527755.987901,753,0,74617.00535412501,0.0106201171875,-0.0057373046875,-0.9988250732421875,1
1571527756.008051,754,0,74617.02535012501,0.0108184814453125,-0.0056304931640625,-1.000320434570312,1
1571527756.038795,755,0,74617.045346125,0.0112457275390625,-0.004730224609375,-0.9997100830078125,1
1571527756.047995,756,0,74617.065342125,0.0106048583984375,-0.0046539306640625,-0.9994354248046875,1
1571527756.067727,757,0,74617.08533812501,0.011810302734375,-0.00390625,-1.00030517578125,1
1571527756.087813,758,0,74617.105333125,0.0107421875,-0.0045318603515625,-0.9996185302734375,1
1571527756.10778,759,0,74617.12533012501,0.0113983154296875,-0.004974365234375,-0.9994964599609375,1
1571527756.128069,760,0,74617.14532512501,0.010467529296875,-0.006317138671875,-1.000885009765625,1
1571527756.170548,761,0,74617.16532112501,0.01129150390625,-0.005889892578125,-0.9990997314453125,1
1571527756.170939,762,0,74617.18531712501,0.0116729736328125,-0.0049591064453125,-1.00048828125,1
1571527756.187964,763,0,74617.205313125,0.0105438232421875,-0.0032501220703125,-0.9997100830078125,1
1571527756.214497,764,0,74617.225309125,0.0108795166015625,-0.0037078857421875,-0.9994659423828125,1
1571527756.227809,765,0,74617.245305125,0.01129150390625,-0.0055084228515625,-1.000198364257812,1
1571527756.248163,766,0,74617.26530112501,0.0101776123046875,-0.0067291259765625,-1.0001220703125,1
1571527756.267943,767,0,74617.28529712501,0.0107269287109375,-0.0065765380859375,-0.9991455078125,1
1571527756.287928,768,0,74617.305293125,0.01043701171875,-0.004547119140625,-0.99993896484375,1
1571527756.308076,769,0,74617.325289125,0.0105743408203125,-0.0041961669921875,-0.998931884765625,1
1571527756.349603,770,0,74617.345285125,0.0115509033203125,-0.0035858154296875,-0.999755859375,1
1571527756.349832,771,0,74617.36528112501,0.0114593505859375,-0.0037841796875,-0.999053955078125,1
1571527756.367961,772,0,74617.38527712501,0.010711669921875,-0.0059356689453125,-1.000167846679688,1
1571527756.387809,773,0,74617.405273125,0.0106201171875,-0.0061798095703125,-0.9977569580078125,1
1571527756.407826,774,0,74617.425269125,0.0111236572265625,-0.0073089599609375,-0.9992523193359375,1
1571527756.427838,775,0,74617.445265125,0.01092529296875,-0.003662109375,-0.9994049072265625,1
1571527756.466401,776,0,74617.46526112501,0.0120086669921875,-0.00360107421875,-1.000213623046875,1
1571527756.467727,777,0,74617.48525712501,0.0113067626953125,-0.0032958984375,-0.9991302490234375,1
1571527756.487954,778,0,74617.50525312501,0.01080322265625,-0.0044708251953125,-0.9995269775390625,1
1571527756.507672,779,0,74617.525249125,0.0100250244140625,-0.0058441162109375,-1.000152587890625,1
1571527756.527767,780,0,74617.545245125,0.0111083984375,-0.0061187744140625,-0.99969482421875,1
1571527756.548007,781,0,74617.565241125,0.0108642578125,-0.0054168701171875,-0.9988861083984375,1
1571527756.588125,782,0,74617.58523712501,0.010955810546875,-0.004852294921875,-0.9993896484375,1
1571527756.588253,783,0,74617.60523312501,0.011199951171875,-0.0040130615234375,-0.99871826171875,1
1571527756.607798,784,0,74617.625229125,0.0118560791015625,-0.0040283203125,-1.000213623046875,1
1571527756.627662,785,0,74617.645225125,0.01123046875,-0.00494384765625,-0.99957275390625,1
1571527756.648028,786,0,74617.665221125,0.01007080078125,-0.0059051513671875,-1.000289916992188,1
1571527756.667833,787,0,74617.685216125,0.0108184814453125,-0.00537109375,-1.00018310546875,1
1571527756.687869,788,0,74617.705212125,0.0109405517578125,-0.0048980712890625,-0.9993438720703125,1
1571527756.707903,789,0,74617.725208125,0.011993408203125,-0.00384521484375,-0.99993896484375,1
1571527756.728086,790,0,74617.74520412501,0.0112762451171875,-0.004241943359375,-0.9991455078125,1
1571527756.770321,791,0,74617.76520012501,0.0111846923828125,-0.00469970703125,-1.0003662109375,1
1571527756.770826,792,0,74617.785196125,0.0107421875,-0.0059661865234375,-0.9997100830078125,1
1571527756.787706,793,0,74617.805192125,0.0104522705078125,-0.00640869140625,-0.9991455078125,1
1571527756.81409,794,0,74617.825188125,0.01055908203125,-0.0052642822265625,-1.000030517578125,1
1571527756.8276,795,0,74617.84518412501,0.0101318359375,-0.004547119140625,-0.999603271484375,1
1571527756.847726,796,0,74617.86518012501,0.01171875,-0.004241943359375,-0.998931884765625,1
1571527756.867723,797,0,74617.88517612501,0.0111541748046875,-0.0040740966796875,-0.999847412109375,1
1571527756.887938,798,0,74617.905172125,0.0107421875,-0.004608154296875,-0.9994354248046875,1
1571527756.908068,799,0,74617.925168125,0.0107879638671875,-0.0052337646484375,-1.000503540039062,1
1571527756.949898,800,0,74617.94516412501,0.01055908203125,-0.00640869140625,-0.9996337890625,1
1571527756.95006,801,0,74617.96516012501,0.011444091796875,-0.0057525634765625,-0.9991455078125,1
1571527756.967648,802,0,74617.98515612501,0.01129150390625,-0.004669189453125,-0.999420166015625,1
1571527756.987712,803,0,74618.005152125,0.0108642578125,-0.004119873046875,-0.998931884765625,1
1571527757.007697,804,0,74618.025148125,0.011077880859375,-0.0047760009765625,-1.000167846679688,1
1571527757.027705,805,0,74618.045144125,0.0109710693359375,-0.0050811767578125,-1.000411987304688,1
1571527757.067709,806,0,74618.06514012501,0.010345458984375,-0.005615234375,-0.9993743896484375,1
1571527757.067822,807,0,74618.08513612501,0.0110321044921875,-0.0063323974609375,-1.000076293945312,1
1571527757.087757,808,0,74618.105132125,0.0099945068359375,-0.00494384765625,-0.999908447265625,1
1571527757.107548,809,0,74618.125128125,0.010772705078125,-0.004913330078125,-0.99884033203125,1
1571527757.127742,810,0,74618.145124125,0.011077880859375,-0.0049591064453125,-1.000137329101562,1
1571527757.147847,811,0,74618.16512012501,0.0110321044921875,-0.0050506591796875,-0.9991455078125,1
1571527757.181614,812,0,74618.18511612501,0.01104736328125,-0.004791259765625,-0.999908447265625,1
1571527757.187645,813,0,74618.20511212501,0.0107879638671875,-0.005401611328125,-0.998931884765625,1
1571527757.207426,814,0,74618.225108125,0.0115203857421875,-0.005767822265625,-0.999481201171875,1
1571527757.227517,815,0,74618.245104125,0.01165771484375,-0.00506591796875,-0.9995880126953125,1
1571527757.247818,816,0,74618.26510012501,0.0111846923828125,-0.004608154296875,-0.9990997314453125,1
1571527757.267908,817,0,74618.28509612501,0.010894775390625,-0.0049591064453125,-0.9986572265625,1
1571527757.307217,818,0,74618.305091125,0.011016845703125,-0.00494384765625,-1.000244140625,1
1571527757.307404,819,0,74618.32508712501,0.011138916015625,-0.0056915283203125,-1.000350952148438,1
1571527757.327629,820,0,74618.34508312501,0.010498046875,-0.00543212890625,-0.9987640380859375,1
1571527757.347873,821,0,74618.36507912501,0.0113372802734375,-0.0052490234375,-1.000625610351562,1
1571527757.367872,822,0,74618.385075125,0.0108795166015625,-0.00457763671875,-0.9990692138671875,1
1571527757.387796,823,0,74618.40507000001,0.011016845703125,-0.0042877197265625,-1.0001220703125,1
1571527757.427933,824,0,74618.42506600001,0.0112762451171875,-0.005828857421875,-0.999786376953125,1
1571527757.428021,825,0,74618.445062,0.0110321044921875,-0.005645751953125,-1.000320434570312,1
1571527757.447864,826,0,74618.465058,0.0110626220703125,-0.0045013427734375,-0.999420166015625,1
1571527757.467652,827,0,74618.485054,0.01080322265625,-0.0048370361328125,-0.9999847412109375,1
1571527757.487597,828,0,74618.50505000001,0.0112762451171875,-0.005218505859375,-0.9987030029296875,1
1571527757.507779,829,0,74618.52504600001,0.0106201171875,-0.0044708251953125,-0.99993896484375,1
1571527757.546709,830,0,74618.545042,0.0098876953125,-0.00421142578125,-0.9999847412109375,1
1571527757.547687,831,0,74618.565038,0.01141357421875,-0.0037078857421875,-0.998046875,1
1571527757.56775,832,0,74618.585034,0.0111083984375,-0.0045623779296875,-0.9999847412109375,1
1571527757.587601,833,0,74618.60503000001,0.0101776123046875,-0.0058441162109375,-0.999267578125,1
1571527757.607581,834,0,74618.62502600001,0.010894775390625,-0.005889892578125,-0.9992218017578125,1
1571527757.627722,835,0,74618.64502200001,0.0115509033203125,-0.0050811767578125,-0.9989776611328125,1
1571527757.668487,836,0,74618.665018,0.0109100341796875,-0.0044097900390625,-1.000167846679688,1
1571527757.668718,837,0,74618.685014,0.0107574462890625,-0.0042572021484375,-0.999908447265625,1
1571527757.687563,838,0,74618.70501000001,0.0108795166015625,-0.0047760009765625,-0.9993896484375,1
1571527757.707562,839,0,74618.72500600001,0.0109405517578125,-0.004608154296875,-0.999481201171875,1
1571527757.727556,840,0,74618.74500200001,0.011077880859375,-0.0040435791015625,-0.9996795654296875,1
1571527757.74793,841,0,74618.764998,0.0113983154296875,-0.0051727294921875,-1.000030517578125,1
1571527757.786759,842,0,74618.784994,0.01043701171875,-0.0060882568359375,-0.999237060546875,1
1571527757.787534,843,0,74618.80499,0.0107574462890625,-0.0064544677734375,-0.99884033203125,1
1571527757.807513,844,0,74618.82498600001,0.0107879638671875,-0.0055694580078125,-0.999755859375,1
1571527757.827461,845,0,74618.84498200001,0.0116424560546875,-0.00323486328125,-0.998931884765625,1
1571527757.847679,846,0,74618.864978,0.0111236572265625,-0.003662109375,-0.999053955078125,1
1571527757.867763,847,0,74618.884974,0.01153564453125,-0.00372314453125,-1.0003662109375,1
1571527757.90769,848,0,74618.90497,0.01043701171875,-0.0055389404296875,-0.9992218017578125,1
1571527757.907838,849,0,74618.92496600001,0.01031494140625,-0.0066070556640625,-0.999237060546875,1
1571527757.927478,850,0,74618.94496200001,0.0107269287109375,-0.0064697265625,-0.9995574951171875,1
1571527757.947498,851,0,74618.96495800001,0.0098724365234375,-0.004486083984375,-0.9986114501953125,1
1571527757.967466,852,0,74618.98495300001,0.010589599609375,-0.003326416015625,-0.998626708984375,1
1571527757.98743,853,0,74619.00494900001,0.0118560791015625,-0.0035552978515625,-0.9981842041015625,1
1571527758.024931,854,0,74619.024945,0.0109405517578125,-0.00445556640625,-0.998321533203125,1
1571527758.027295,855,0,74619.044941,0.0106201171875,-0.005889892578125,-0.9994354248046875,1
1571527758.047645,856,0,74619.064937,0.0104827880859375,-0.0065765380859375,-0.998565673828125,1
1571527758.067488,857,0,74619.08493300001,0.0103912353515625,-0.0054473876953125,-0.9993896484375,1
1571527758.08746,858,0,74619.10492900001,0.010833740234375,-0.0046234130859375,-0.999176025390625,1
1571527758.107607,859,0,74619.12492500001,0.010345458984375,-0.0038299560546875,-0.9987640380859375,1
1571527758.150004,860,0,74619.144921,0.0117034912109375,-0.004150390625,-0.9998931884765625,1
1571527758.150105,861,0,74619.164917,0.010772705078125,-0.0042877197265625,-0.999298095703125,1
1571527758.167372,862,0,74619.184913,0.0116119384765625,-0.005157470703125,-0.99847412109375,1
1571527758.187341,863,0,74619.20490900001,0.010833740234375,-0.0055694580078125,-0.999176025390625,1
1571527758.207424,864,0,74619.22490500001,0.0100555419921875,-0.0049285888671875,-0.9980926513671875,1
1571527758.227569,865,0,74619.244901,0.0107269287109375,-0.0050048828125,-0.9992218017578125,1
1571527758.264317,866,0,74619.264897,0.0108489990234375,-0.004180908203125,-0.99847412109375,1
1571527758.267223,867,0,74619.284893,0.0107879638671875,-0.0038299560546875,-0.9982147216796875,1
1571527758.287458,868,0,74619.30488900001,0.01092529296875,-0.004608154296875,-0.999267578125,1
1571527758.30718,869,0,74619.32488500001,0.0107574462890625,-0.0053558349609375,-0.9990081787109375,1
1571527758.327363,870,0,74619.344881,0.0112457275390625,-0.0052642822265625,-0.999908447265625,1
1571527758.347668,871,0,74619.364877,0.010528564453125,-0.0051727294921875,-0.998870849609375,1
1571527758.385509,872,0,74619.384873,0.0100250244140625,-0.004852294921875,-0.99859619140625,1
1571527758.387171,873,0,74619.40486937501,0.0113372802734375,-0.0045623779296875,-0.9990386962890625,1
1571527758.4074,874,0,74619.42486537501,0.01104736328125,-0.00390625,-0.99932861328125,1
1571527758.436743,875,0,74619.444861375,0.0107879638671875,-0.0047607421875,-0.9989166259765625,1
1571527758.4473,876,0,74619.464857375,0.010772705078125,-0.0051422119140625,-0.997955322265625,1
1571527758.467413,877,0,74619.484853375,0.0102386474609375,-0.005645751953125,-0.999237060546875,1
1571527758.487517,878,0,74619.50484937501,0.0105743408203125,-0.0066986083984375,-1.000457763671875,1
1571527758.507383,879,0,74619.52484537501,0.01092529296875,-0.005859375,-0.998291015625,1
1571527758.527776,880,0,74619.544841375,0.0105743408203125,-0.0041656494140625,-0.999267578125,1
1571527758.566846,881,0,74619.564837375,0.0108795166015625,-0.00360107421875,-0.9984893798828125,1
1571527758.567151,882,0,74619.584833375,0.011474609375,-0.003936767578125,-0.9990692138671875,1
1571527758.587377,883,0,74619.60482937501,0.0108489990234375,-0.0048370361328125,-0.9990081787109375,1
1571527758.607278,884,0,74619.62482537501,0.01092529296875,-0.005584716796875,-0.998321533203125,1
1571527758.627287,885,0,74619.644821375,0.0102996826171875,-0.0062255859375,-0.999237060546875,1
1571527758.647479,886,0,74619.664817375,0.010986328125,-0.0053558349609375,-0.998687744140625,1
1571527758.68747,887,0,74619.684813375,0.0108184814453125,-0.004241943359375,-0.998138427734375,1
1571527758.687605,888,0,74619.70480937501,0.0101165771484375,-0.00372314453125,-0.998199462890625,1
1571527758.707305,889,0,74619.72480537501,0.0110321044921875,-0.0046539306640625,-0.99908447265625,1
1571527758.727235,890,0,74619.74480137501,0.0108642578125,-0.0039520263671875,-0.99871826171875,1
1571527758.74745,891,0,74619.764797375,0.0111236572265625,-0.0060272216796875,-0.9987335205078125,1
1571527758.7676,892,0,74619.784793375,0.0109710693359375,-0.006195068359375,-0.99957275390625,1
1571527758.807402,893,0,74619.804789375,0.0111846923828125,-0.0047454833984375,-0.99920654296875,1
1571527758.807487,894,0,74619.82478537501,0.0102386474609375,-0.0041351318359375,-0.99951171875,1
1571527758.827289,895,0,74619.84478137501,0.011138916015625,-0.00396728515625,-0.9989013671875,1
1571527758.847245,896,0,74619.864777375,0.0103912353515625,-0.00384521484375,-0.9985504150390625,1
1571527758.867348,897,0,74619.88477437501,0.010955810546875,-0.0041961669921875,-0.9988250732421875,1
1571527758.887458,898,0,74619.90477037501,0.011077880859375,-0.0057373046875,-0.9989471435546875,1
1571527758.925206,899,0,74619.924766375,0.011077880859375,-0.0056610107421875,-0.9986724853515625,1
1571527758.927239,900,0,74619.944762375,0.010833740234375,-0.0041351318359375,-0.9986724853515625,1
1571527758.947274,901,0,74619.964758375,0.0107421875,-0.00408935546875,-0.9987335205078125,1
1571527758.967313,902,0,74619.98475437501,0.011322021484375,-0.0034942626953125,-0.9987945556640625,1
1571527758.987271,903,0,74620.00475037501,0.0112457275390625,-0.0048828125,-0.9987945556640625,1
1571527759.007477,904,0,74620.024746375,0.01080322265625,-0.0063323974609375,-1.000030517578125,1
1571527759.047349,905,0,74620.044742375,0.0107879638671875,-0.0064697265625,-0.998992919921875,1
1571527759.047501,906,0,74620.064738375,0.0110321044921875,-0.0048980712890625,-0.998199462890625,1
1571527759.067246,907,0,74620.08473437501,0.010894775390625,-0.0047149658203125,-0.9993896484375,1
1571527759.087121,908,0,74620.10473037501,0.011138916015625,-0.004974365234375,-0.9991607666015625,1
1571527759.107186,909,0,74620.124726375,0.011627197265625,-0.0041351318359375,-0.9989471435546875,1
1571527759.127266,910,0,74620.144722375,0.010498046875,-0.00634765625,-0.999725341796875,1
1571527759.162071,911,0,74620.164718375,0.0107879638671875,-0.005950927734375,-0.9996185302734375,1
1571527759.167173,912,0,74620.18471437501,0.011199951171875,-0.0051116943359375,-0.998809814453125,1
1571527759.18739,913,0,74620.20471037501,0.0108795166015625,-0.0042572021484375,-0.9991607666015625,1
1571527759.207087,914,0,74620.22470637501,0.0110321044921875,-0.004638671875,-0.998626708984375,1
1571527759.227161,915,0,74620.244702375,0.010650634765625,-0.0047454833984375,-0.99853515625,1
1571527759.247539,916,0,74620.264698375,0.0109710693359375,-0.005126953125,-0.998779296875,1
1571527759.287616,917,0,74620.284694375,0.0108795166015625,-0.0055084228515625,-0.998077392578125,1
1571527759.287712,918,0,74620.30469037501,0.0110015869140625,-0.006439208984375,-0.9984588623046875,1
1571527759.307166,919,0,74620.32468637501,0.010467529296875,-0.004547119140625,-0.998870849609375,1
1571527759.327214,920,0,74620.344682375,0.011260986328125,-0.004913330078125,-0.9989471435546875,1
1571527759.347286,921,0,74620.364678375,0.0106658935546875,-0.0045166015625,-0.9994659423828125,1
1571527759.367513,922,0,74620.384674375,0.0113677978515625,-0.00445556640625,-0.9982147216796875,1
1571527759.404183,923,0,74620.40467050001,0.0110626220703125,-0.0055694580078125,-0.9984130859375,1
1571527759.407013,924,0,74620.42466650001,0.0106353759765625,-0.0052337646484375,-0.9989013671875,1
1571527759.427171,925,0,74620.4446625,0.010498046875,-0.00494384765625,-0.998565673828125,1
1571527759.447196,926,0,74620.4646585,0.01080322265625,-0.005279541015625,-0.9986114501953125,1
1571527759.467317,927,0,74620.4846545,0.0107269287109375,-0.00390625,-0.9993896484375,1
1571527759.48741,928,0,74620.50465050001,0.0109405517578125,-0.004638671875,-0.998565673828125,1
1571527759.527261,929,0,74620.52464650001,0.010986328125,-0.005340576171875,-1.00018310546875,1
1571527759.52735,930,0,74620.5446425,0.010223388671875,-0.0067901611328125,-0.9981689453125,1
1571527759.547328,931,0,74620.5646385,0.0109710693359375,-0.006072998046875,-0.99920654296875,1
1571527759.567131,932,0,74620.58463550001,0.0106658935546875,-0.0059967041015625,-0.9990386962890625,1
1571527759.587305,933,0,74620.6046315,0.01068115234375,-0.00439453125,-0.9987640380859375,1
1571527759.607341,934,0,74620.6246275,0.010955810546875,-0.0038604736328125,-0.9982452392578125,1
1571527759.645226,935,0,74620.6446235,0.0105743408203125,-0.0046539306640625,-0.9987640380859375,1
1571527759.646954,936,0,74620.66461950001,0.0108642578125,-0.00518798828125,-0.9989166259765625,1
1571527759.667116,937,0,74620.68461550001,0.0108795166015625,-0.00555419921875,-0.999053955078125,1
1571527759.68705,938,0,74620.7046115,0.0100555419921875,-0.0056915283203125,-0.998687744140625,1
1571527759.707067,939,0,74620.7246075,0.0112152099609375,-0.00482177734375,-0.9986724853515625,1
1571527759.727314,940,0,74620.7446035,0.010650634765625,-0.0032806396484375,-0.9986572265625,1
1571527759.767871,941,0,74620.76459950001,0.010955810546875,-0.0045623779296875,-0.9987640380859375,1
1571527759.768067,942,0,74620.78459550001,0.01043701171875,-0.004974365234375,-0.998046875,1
1571527759.787063,943,0,74620.80459150001,0.01043701171875,-0.0058441162109375,-0.99981689453125,1
1571527759.806991,944,0,74620.8245875,0.0105743408203125,-0.00579833984375,-0.9991455078125,1
1571527759.827016,945,0,74620.8445835,0.0106201171875,-0.004852294921875,-0.999725341796875,1
1571527759.847429,946,0,74620.8645795,0.01068115234375,-0.004180908203125,-0.9994964599609375,1
1571527759.887121,947,0,74620.88457550001,0.0113677978515625,-0.0034637451171875,-0.9994659423828125,1
1571527759.887213,948,0,74620.90457150001,0.0104522705078125,-0.0050201416015625,-0.9992218017578125,1
1571527759.907136,949,0,74620.9245675,0.0111236572265625,-0.00537109375,-0.9990997314453125,1
1571527759.926995,950,0,74620.9445635,0.01080322265625,-0.00518798828125,-0.9997100830078125,1
1571527759.947014,951,0,74620.9645595,0.0119171142578125,-0.0052032470703125,-0.9990234375,1
1571527759.967093,952,0,74620.98455550001,0.010711669921875,-0.0055999755859375,-0.998992919921875,1
1571527760.00646,953,0,74621.0045525,0.011199951171875,-0.003692626953125,-0.9991912841796875,1
1571527760.006818,954,0,74621.02454850001,0.0105743408203125,-0.0046234130859375,-0.999267578125,1
1571527760.02696,955,0,74621.04454450001,0.0112762451171875,-0.0049896240234375,-0.99957275390625,1
1571527760.047034,956,0,74621.06454050001,0.009613037109375,-0.00482177734375,-0.9989013671875,1
1571527760.067161,957,0,74621.0845365,0.0105133056640625,-0.0045166015625,-1.000152587890625,1
1571527760.087176,958,0,74621.1045325,0.011138916015625,-0.00384521484375,-0.998443603515625,1
1571527760.127837,959,0,74621.1245285,0.0110015869140625,-0.005096435546875,-0.999603271484375,1
1571527760.12793,960,0,74621.14452450001,0.010986328125,-0.0040435791015625,-0.998077392578125,1
1571527760.147032,961,0,74621.16452050001,0.011077880859375,-0.004852294921875,-0.9997100830078125,1
1571527760.166939,962,0,74621.1845165,0.0113372802734375,-0.006591796875,-0.9988861083984375,1
1571527760.186942,963,0,74621.2045125,0.0106964111328125,-0.0055694580078125,-0.9996490478515625,1
1571527760.207121,964,0,74621.2245085,0.0107421875,-0.0050201416015625,-0.99932861328125,1
1571527760.243854,965,0,74621.24450450001,0.01092529296875,-0.0047454833984375,-0.9984893798828125,1
1571527760.246865,966,0,74621.26450050001,0.0107879638671875,-0.00421142578125,-0.9986572265625,1
1571527760.267095,967,0,74621.28449650001,0.0105133056640625,-0.00372314453125,-0.998870849609375,1
1571527760.286962,968,0,74621.3044925,0.01031494140625,-0.0052947998046875,-0.9994354248046875,1
1571527760.306958,969,0,74621.3244885,0.010833740234375,-0.0051422119140625,-0.9983673095703125,1
1571527760.327077,970,0,74621.3444855,0.01116943359375,-0.0043792724609375,-0.999053955078125,1
1571527760.368472,971,0,74621.3644815,0.010772705078125,-0.0051116943359375,-0.998138427734375,1
1571527760.368674,972,0,74621.3844775,0.010894775390625,-0.0051422119140625,-0.9994964599609375,1
1571527760.386924,973,0,74621.40447362501,0.010894775390625,-0.0050201416015625,-0.998199462890625,1
1571527760.407132,974,0,74621.42446962501,0.010711669921875,-0.004608154296875,-0.9992828369140625,1
1571527760.42696,975,0,74621.444465625,0.01092529296875,-0.0054473876953125,-0.997894287109375,1
1571527760.447096,976,0,74621.464461625,0.010986328125,-0.004852294921875,-0.99810791015625,1
1571527760.487803,977,0,74621.484457625,0.0107269287109375,-0.00555419921875,-0.9989776611328125,1
1571527760.487947,978,0,74621.50445362501,0.0112152099609375,-0.005279541015625,-1.000015258789062,1
1571527760.506925,979,0,74621.52444962501,0.0109100341796875,-0.0054168701171875,-0.99920654296875,1
1571527760.526848,980,0,74621.54444562501,0.010986328125,-0.0044708251953125,-0.999053955078125,1
1571527760.546868,981,0,74621.564441625,0.0111083984375,-0.0049896240234375,-1.000228881835938,1
1571527760.56716,982,0,74621.584437625,0.0109405517578125,-0.0051422119140625,-0.9989776611328125,1
1571527760.605789,983,0,74621.60443362501,0.0112762451171875,-0.00616455078125,-0.99993896484375,1
1571527760.606853,984,0,74621.62442962501,0.0107421875,-0.0052947998046875,-0.998321533203125,1
1571527760.626882,985,0,74621.644426625,0.01116943359375,-0.00567626953125,-0.9994354248046875,1
1571527760.646767,986,0,74621.66442262501,0.01104736328125,-0.0045166015625,-0.998291015625,1
1571527760.667058,987,0,74621.68441862501,0.0113372802734375,-0.0045318603515625,-0.9993133544921875,1
1571527760.687038,988,0,74621.704414625,0.011322021484375,-0.005218505859375,-0.9994049072265625,1
1571527760.724205,989,0,74621.724410625,0.0111541748046875,-0.0051422119140625,-0.99884033203125,1
1571527760.726716,990,0,74621.744406625,0.011199951171875,-0.0049591064453125,-0.999664306640625,1
1571527760.74684,991,0,74621.76440262501,0.0109710693359375,-0.00567626953125,-0.9990692138671875,1
1571527760.767102,992,0,74621.78439862501,0.0112762451171875,-0.0058746337890625,-0.999603271484375,1
1571527760.787408,993,0,74621.80439462501,0.0107879638671875,-0.0040740966796875,-0.9994354248046875,1
1571527760.807005,994,0,74621.824390625,0.011077880859375,-0.0044097900390625,-0.9984893798828125,1
1571527760.847589,995,0,74621.844386625,0.01068115234375,-0.0045623779296875,-0.998779296875,1
1571527760.847739,996,0,74621.864382625,0.0108642578125,-0.0045166015625,-1.00018310546875,1
1571527760.867044,997,0,74621.88437862501,0.010772705078125,-0.0049896240234375,-0.9994659423828125,1
1571527760.886801,998,0,74621.90437462501,0.010589599609375,-0.0054931640625,-0.9990386962890625,1
1571527760.90702,999,0,74621.92437162501,0.010955810546875,-0.0050048828125,-0.998504638671875,1
1571527760.926917,1000,0,74621.94436762501,0.0111236572265625,-0.0050811767578125,-0.998748779296875,1
1571527760.96695,1001,0,74621.96436362501,0.0106201171875,-0.004241943359375,-0.9980010986328125,1
1571527760.967055,1002,0,74621.984359625,0.0104522705078125,-0.004791259765625,-0.9989013671875,1
1571527760.987065,1003,0,74622.004355625,0.010833740234375,-0.0047149658203125,-0.9989471435546875,1
1571527761.006626,1004,0,74622.024351625,0.0103759765625,-0.0054779052734375,-0.998870849609375,1
1571527761.026781,1005,0,74622.04434762501,0.010589599609375,-0.00506591796875,-0.9990997314453125,1
1571527761.04702,1006,0,74622.06434362501,0.0114288330078125,-0.005523681640625,-0.999298095703125,1
1571527761.085633,1007,0,74622.084339625,0.0107421875,-0.005340576171875,-0.9984283447265625,1
1571527761.086802,1008,0,74622.104335625,0.010467529296875,-0.0048828125,-0.99822998046875,1
1571527761.106757,1009,0,74622.124331625,0.0110626220703125,-0.004852294921875,-0.998779296875,1
1571527761.126665,1010,0,74622.14432762501,0.011016845703125,-0.0047760009765625,-0.99884033203125,1
1571527761.146738,1011,0,74622.16432362501,0.0109710693359375,-0.004547119140625,-0.998443603515625,1
1571527761.166965,1012,0,74622.18432062501,0.0110626220703125,-0.004791259765625,-1.000091552734375,1
1571527761.207083,1013,0,74622.20431662501,0.01031494140625,-0.0054473876953125,-0.998992919921875,1
1571527761.207175,1014,0,74622.22431262501,0.01129150390625,-0.00482177734375,-0.9995269775390625,1
1571527761.22672,1015,0,74622.244308625,0.01141357421875,-0.0045166015625,-0.99945068359375,1
1571527761.246652,1016,0,74622.264304625,0.0107879638671875,-0.004119873046875,-0.998504638671875,1
1571527761.266825,1017,0,74622.284300625,0.0111236572265625,-0.0049591064453125,-0.9996795654296875,1
1571527761.286763,1018,0,74622.30429662501,0.0113525390625,-0.0047454833984375,-0.999847412109375,1
1571527761.322567,1019,0,74622.32429262501,0.01116943359375,-0.004730224609375,-0.998779296875,1
1571527761.326537,1020,0,74622.344288625,0.010406494140625,-0.005126953125,-0.9987640380859375,1
1571527761.346812,1021,0,74622.364284625,0.0102996826171875,-0.0050506591796875,-0.99993896484375,1
1571527761.366672,1022,0,74622.384280625,0.0108795166015625,-0.0051727294921875,-0.998992919921875,1
1571527761.386761,1023,0,74622.40427725001,0.0105743408203125,-0.0050201416015625,-0.9991302490234375,1
1571527761.406779,1024,0,74622.42427425001,0.01068115234375,-0.0050506591796875,-0.9981842041015625,1
1571527761.446537,1025,0,74622.44427025001,0.0109405517578125,-0.004730224609375,-0.9992828369140625,1
1571527761.446794,1026,0,74622.46426625,0.0102996826171875,-0.0054931640625,-0.998931884765625,1
1571527761.466708,1027,0,74622.48426225,0.0106964111328125,-0.0045623779296875,-1.00006103515625,1
1571527761.486651,1028,0,74622.50425825,0.010955810546875,-0.0055694580078125,-0.9982757568359375,1
1571527761.506733,1029,0,74622.52425425001,0.01092529296875,-0.004974365234375,-0.9986114501953125,1
1571527761.52682,1030,0,74622.54425025001,0.0115203857421875,-0.00457763671875,-0.99871826171875,1
1571527761.564143,1031,0,74622.56424625001,0.0106658935546875,-0.00579833984375,-0.9982757568359375,1
1571527761.566852,1032,0,74622.58424225,0.0106048583984375,-0.0059814453125,-0.9996337890625,1
1571527761.586947,1033,0,74622.60423825,0.0104522705078125,-0.005126953125,-0.9976959228515625,1
1571527761.606618,1034,0,74622.62423525,0.0107574462890625,-0.0050201416015625,-0.9989013671875,1
1571527761.62668,1035,0,74622.64423125,0.01092529296875,-0.0045928955078125,-0.99786376953125,1
1571527761.646923,1036,0,74622.66422725,0.0104827880859375,-0.004852294921875,-1.000091552734375,1
1571527761.690697,1037,0,74622.68422325001,0.0107879638671875,-0.00543212890625,-0.9990386962890625,1
1571527761.690794,1038,0,74622.70421925001,0.0111541748046875,-0.0049896240234375,-0.9980316162109375,1
1571527761.706586,1039,0,74622.72421525001,0.0110626220703125,-0.006195068359375,-0.9983978271484375,1
1571527761.726581,1040,0,74622.74421125,0.01104736328125,-0.004730224609375,-0.9993896484375,1
1571527761.746642,1041,0,74622.76420725,0.0110931396484375,-0.005462646484375,-0.99798583984375,1
1571527761.766806,1042,0,74622.78420325,0.011077880859375,-0.0052490234375,-0.9992828369140625,1
1571527761.806198,1043,0,74622.80419925001,0.0103912353515625,-0.0049285888671875,-0.999267578125,1
1571527761.806573,1044,0,74622.82419525001,0.0109405517578125,-0.005340576171875,-0.99908447265625,1
1571527761.826569,1045,0,74622.84419225001,0.011016845703125,-0.0048065185546875,-0.9990692138671875,1
1571527761.846495,1046,0,74622.86418825001,0.0111846923828125,-0.0058746337890625,-0.99981689453125,1
1571527761.866876,1047,0,74622.88418425001,0.011077880859375,-0.005462646484375,-0.9994354248046875,1
1571527761.886807,1048,0,74622.90418025,0.01080322265625,-0.005340576171875,-0.999267578125,1
1571527761.919934,1049,0,74622.92417625,0.011138916015625,-0.005615234375,-0.999053955078125,1
1571527761.92644,1050,0,74622.94417225001,0.0107574462890625,-0.0043487548828125,-0.99945068359375,1
1571527761.946623,1051,0,74622.96416825001,0.010711669921875,-0.004852294921875,-0.9989013671875,1
1571527761.9668,1052,0,74622.98416425001,0.0115203857421875,-0.0052032470703125,-0.999664306640625,1
1571527761.986648,1053,0,74623.00416025,0.0115509033203125,-0.0047760009765625,-0.9983978271484375,1
1571527762.006877,1054,0,74623.02415725001,0.0107574462890625,-0.0051422119140625,-0.998779296875,1
1571527762.052096,1055,0,74623.04415325001,0.0101318359375,-0.0052642822265625,-0.9989471435546875,1
1571527762.052594,1056,0,74623.06414925,0.0107879638671875,-0.005218505859375,-0.998748779296875,1
1571527762.06671,1057,0,74623.08414525,0.0113677978515625,-0.0054931640625,-1.000335693359375,1
1571527762.093483,1058,0,74623.10414125001,0.0115966796875,-0.00506591796875,-0.9981231689453125,1
1571527762.106467,1059,0,74623.12413725001,0.0112152099609375,-0.005096435546875,-0.9991607666015625,1
1571527762.12662,1060,0,74623.14413325001,0.010772705078125,-0.00421142578125,-0.9991912841796875,1
1571527762.146488,1061,0,74623.16412925,0.0106353759765625,-0.0062255859375,-0.99884033203125,1
1571527762.166601,1062,0,74623.18412525,0.0109710693359375,-0.005279541015625,-0.999908447265625,1
1571527762.18691,1063,0,74623.20412225,0.01153564453125,-0.00506591796875,-0.99908447265625,1
1571527762.225864,1064,0,74623.22411825,0.011199951171875,-0.0050048828125,-0.9995269775390625,1
1571527762.226536,1065,0,74623.24411425,0.011077880859375,-0.004913330078125,-0.9976959228515625,1
1571527762.246555,1066,0,74623.26411025001,0.010986328125,-0.0048828125,-0.9989776611328125,1
1571527762.266571,1067,0,74623.28410625001,0.010223388671875,-0.0059814453125,-0.9991455078125,1
1571527762.286594,1068,0,74623.30410225001,0.0113067626953125,-0.0057373046875,-0.998687744140625,1
1571527762.306672,1069,0,74623.32409825,0.01068115234375,-0.00616455078125,-0.9983978271484375,1
1571527762.343893,1070,0,74623.34409425,0.0113067626953125,-0.005401611328125,-0.99835205078125,1
1571527762.346338,1071,0,74623.36409125,0.011260986328125,-0.0055694580078125,-0.9991455078125,1
1571527762.366596,1072,0,74623.38408725,0.0111846923828125,-0.0043792724609375,-0.99847412109375,1
1571527762.386621,1073,0,74623.40408191667,0.01116943359375,-0.004669189453125,-0.9988250732421875,1
1571527762.406575,1074,0,74623.42407791667,0.010894775390625,-0.005523681640625,-0.998779296875,1
1571527762.426689,1075,0,74623.44407391667,0.0109710693359375,-0.0059356689453125,-0.9993743896484375,1
1571527762.466524,1076,0,74623.46406991668,0.0105743408203125,-0.006378173828125,-0.9985809326171875,1
1571527762.466733,1077,0,74623.48406591667,0.0108642578125,-0.0056304931640625,-0.9988250732421875,1
1571527762.486605,1078,0,74623.50406191667,0.0108184814453125,-0.00439453125,-0.999755859375,1
1571527762.506338,1079,0,74623.52405891666,0.01153564453125,-0.0048370361328125,-0.999908447265625,1
1571527762.526455,1080,0,74623.54405491667,0.010589599609375,-0.0036773681640625,-0.9987030029296875,1
1571527762.546493,1081,0,74623.56405091667,0.01129150390625,-0.00518798828125,-0.99920654296875,1
1571527762.582632,1082,0,74623.58404691667,0.010711669921875,-0.005950927734375,-0.999359130859375,1
1571527762.586358,1083,0,74623.60404291668,0.0111541748046875,-0.0062103271484375,-0.9983673095703125,1
1571527762.606314,1084,0,74623.62403891668,0.0108184814453125,-0.0056915283203125,-1.000152587890625,1
1571527762.626217,1085,0,74623.64403491667,0.0113525390625,-0.0041046142578125,-0.9977874755859375,1
1571527762.646389,1086,0,74623.66403091667,0.0112762451171875,-0.0041656494140625,-0.9988250732421875,1
1571527762.666766,1087,0,74623.68402791666,0.0110015869140625,-0.004241943359375,-1.00042724609375,1
1571527762.708072,1088,0,74623.70402391667,0.01019287109375,-0.0058135986328125,-0.9992218017578125,1
1571527762.70816,1089,0,74623.72401991667,0.0103607177734375,-0.006103515625,-0.9988250732421875,1
1571527762.726368,1090,0,74623.74401591667,0.010345458984375,-0.006561279296875,-1.000961303710938,1
1571527762.746299,1091,0,74623.76401191668,0.0104827880859375,-0.006256103515625,-0.99835205078125,1
1571527762.766502,1092,0,74623.78400791668,0.01055908203125,-0.005126953125,-0.998626708984375,1
1571527762.786544,1093,0,74623.80400391667,0.01080322265625,-0.0035552978515625,-1.000732421875,1
1571527762.82401,1094,0,74623.82399991667,0.0117645263671875,-0.0024871826171875,-0.99761962890625,1
1571527762.826201,1095,0,74623.84399691666,0.0115966796875,-0.0032196044921875,-0.9998626708984375,1
1571527762.846342,1096,0,74623.86399291667,0.0105743408203125,-0.005645751953125,-0.9989471435546875,1
1571527762.866455,1097,0,74623.88398891667,0.01043701171875,-0.008026123046875,-0.9986419677734375,1
1571527762.886273,1098,0,74623.90398491667,0.010284423828125,-0.0088653564453125,-1.000076293945312,1
1571527762.906772,1099,0,74623.92398091668,0.0095367431640625,-0.0065460205078125,-0.99798583984375,1
1571527762.948928,1100,0,74623.94397691668,0.0107269287109375,-0.0040283203125,-1.00030517578125,1
1571527762.949029,1101,0,74623.96397291667,0.011383056640625,-0.002349853515625,-0.997283935546875,1
1571527762.966333,1102,0,74623.98396891667,0.0105133056640625,-0.00299072265625,-0.9996337890625,1
1571527762.986199,1103,0,74624.00396591667,0.010711669921875,-0.0057830810546875,-0.9978485107421875,1
1571527763.006347,1104,0,74624.02396191667,0.010162353515625,-0.0084075927734375,-0.9988861083984375,1
1571527763.026563,1105,0,74624.04395791667,0.0095062255859375,-0.008056640625,-0.999237060546875,1
1571527763.070264,1106,0,74624.06395391667,0.011322021484375,-0.00531005859375,-0.999481201171875,1
1571527763.070366,1107,0,74624.08394991668,0.0110321044921875,-0.001953125,-0.997711181640625,1
1571527763.086375,1108,0,74624.10394591666,0.01214599609375,-0.001922607421875,-1.000137329101562,1
1571527763.106326,1109,0,74624.12394191667,0.0114288330078125,-0.0033111572265625,-1.000106811523438,1
1571527763.126391,1110,0,74624.14393891668,0.01080322265625,-0.00634765625,-0.99774169921875,1
1571527763.146516,1111,0,74624.16393491667,0.010772705078125,-0.0104827880859375,-1.000946044921875,1
1571527763.166362,1112,0,74624.18393091667,0.0106658935546875,-0.008331298828125,-0.998779296875,1
1571527763.186322,1113,0,74624.20392691667,0.010833740234375,-0.0047607421875,-0.9978179931640625,1
1571527763.206359,1114,0,74624.22392291667,0.0113983154296875,-0.0004119873046875,-0.9987945556640625,1
1571527763.247085,1115,0,74624.24391891668,0.01104736328125,-0.0019378662109375,-0.9997406005859375,1
1571527763.247233,1116,0,74624.26391491666,0.0109100341796875,-0.0051116943359375,-0.99853515625,1
1571527763.26622,1117,0,74624.28391191667,0.01031494140625,-0.0081024169921875,-0.9994659423828125,1
1571527763.286433,1118,0,74624.30390791668,0.0101470947265625,-0.0093536376953125,-0.9992523193359375,1
1571527763.306326,1119,0,74624.32390391667,0.0111236572265625,-0.0058135986328125,-0.9992828369140625,1
1571527763.326491,1120,0,74624.34389991667,0.0106658935546875,-0.0027313232421875,-0.99871826171875,1
1571527763.364791,1121,0,74624.36389591667,0.01153564453125,-0.00128173828125,-0.9988555908203125,1
1571527763.366391,1122,0,74624.38389191667,0.0115509033203125,-0.0033721923828125,-0.9991912841796875,1
1571527763.386253,1123,0,74624.40388937501,0.010040283203125,-0.00543212890625,-0.99871826171875,1
1571527763.406259,1124,0,74624.423885375,0.00958251953125,-0.0084228515625,-0.999267578125,1
1571527763.426274,1125,0,74624.443881375,0.0109100341796875,-0.007415771484375,-0.9992218017578125,1
1571527763.446461,1126,0,74624.463877375,0.0103302001953125,-0.0047760009765625,-1.000274658203125,1
1571527763.487618,1127,0,74624.48387337501,0.0111236572265625,-0.0044708251953125,-0.9996337890625,1
1571527763.487753,1128,0,74624.50386937501,0.0110015869140625,-0.00360107421875,-0.998199462890625,1
1571527763.506473,1129,0,74624.523865375,0.0107574462890625,-0.0039825439453125,-0.998565673828125,1
1571527763.526213,1130,0,74624.54386237501,0.0108489990234375,-0.0050811767578125,-0.998748779296875,1
1571527763.546233,1131,0,74624.56385837501,0.0107421875,-0.0064544677734375,-0.999786376953125,1
1571527763.566223,1132,0,74624.583854375,0.0107879638671875,-0.0053558349609375,-0.9988861083984375,1
1571527763.589515,1133,0,74624.603850375,0.011077880859375,-0.00531005859375,-0.99951171875,1
1571527763.606315,1134,0,74624.62384637501,0.0106658935546875,-0.0039520263671875,-0.9991607666015625,1
1571527763.626655,1135,0,74624.64384237501,0.0108642578125,-0.0038909912109375,-0.9982757568359375,1
1571527763.670195,1136,0,74624.663839375,0.0106964111328125,-0.004150390625,-0.999053955078125,1
1571527763.670313,1137,0,74624.68383537501,0.0104827880859375,-0.005523681640625,-0.9993896484375,1
1571527763.686283,1138,0,74624.70383137501,0.0106964111328125,-0.006683349609375,-0.9994659423828125,1
1571527763.706014,1139,0,74624.72382737501,0.0108489990234375,-0.0060577392578125,-0.9996185302734375,1
1571527763.72624,1140,0,74624.743823375,0.010223388671875,-0.0052032470703125,-0.9987335205078125,1
1571527763.746268,1141,0,74624.763819375,0.01025390625,-0.0032806396484375,-0.99884033203125,1
1571527763.782242,1142,0,74624.783816375,0.0115203857421875,-0.0042572021484375,-0.9987945556640625,1
1571527763.786109,1143,0,74624.803812375,0.0104217529296875,-0.00457763671875,-0.9992218017578125,1
1571527763.806173,1144,0,74624.823808375,0.011077880859375,-0.005523681640625,-0.999725341796875,1
1571527763.82634,1145,0,74624.84380437501,0.010955810546875,-0.0062713623046875,-0.9997100830078125,1
1571527763.846213,1146,0,74624.86380037501,0.0111846923828125,-0.006011962890625,-0.998565673828125,1
1571527763.866293,1147,0,74624.883796375,0.0109405517578125,-0.0048675537109375,-1.000167846679688,1
1571527763.906919,1148,0,74624.90379337501,0.011077880859375,-0.004425048828125,-0.999267578125,1
1571527763.907008,1149,0,74624.92378937501,0.0109100341796875,-0.0050506591796875,-0.9984588623046875,1
1571527763.92622,1150,0,74624.943785375,0.0111236572265625,-0.004486083984375,-0.99908447265625,1
1571527763.946053,1151,0,74624.963781375,0.010223388671875,-0.0047149658203125,-0.9991455078125,1
1571527763.966089,1152,0,74624.983777375,0.010711669921875,-0.0051422119140625,-0.9988861083984375,1
1571527763.986563,1153,0,74625.00377337501,0.0112152099609375,-0.005584716796875,-0.998870849609375,1
1571527764.024113,1154,0,74625.023770375,0.0106658935546875,-0.0050811767578125,-0.9986724853515625,1
1571527764.025963,1155,0,74625.04376637501,0.0112457275390625,-0.0047607421875,-0.9993133544921875,1
1571527764.046182,1156,0,74625.06376237501,0.010589599609375,-0.0049285888671875,-0.9996337890625,1
1571527764.066171,1157,0,74625.08375837501,0.01104736328125,-0.0045318603515625,-0.9984130859375,1
1571527764.086129,1158,0,74625.103754375,0.01080322265625,-0.00543212890625,-0.999298095703125,1
1571527764.106304,1159,0,74625.123750375,0.0108489990234375,-0.0058135986328125,-0.999298095703125,1
1571527764.143734,1160,0,74625.143747375,0.0111236572265625,-0.0046844482421875,-0.9993438720703125,1
1571527764.145958,1161,0,74625.163743375,0.0109710693359375,-0.0038604736328125,-0.999542236328125,1
1571527764.166159,1162,0,74625.183739375,0.01031494140625,-0.0051116943359375,-0.9981842041015625,1
1571527764.186158,1163,0,74625.20373537501,0.0106353759765625,-0.0055694580078125,-0.99969482421875,1
1571527764.206275,1164,0,74625.22373137501,0.0110931396484375,-0.0047149658203125,-0.9989471435546875,1
1571527764.226292,1165,0,74625.24372737501,0.011383056640625,-0.004547119140625,-0.9987640380859375,1
1571527764.263416,1166,0,74625.26372437501,0.01031494140625,-0.004791259765625,-1,1
1571527764.265856,1167,0,74625.28372037501,0.0103302001953125,-0.0049896240234375,-0.9994659423828125,1
1571527764.286115,1168,0,74625.303716375,0.0106658935546875,-0.0054473876953125,-0.9988861083984375,1
1571527764.305882,1169,0,74625.323712375,0.01104736328125,-0.0056610107421875,-0.998748779296875,1
1571527764.326086,1170,0,74625.343708375,0.0111236572265625,-0.00543212890625,-0.99853515625,1
1571527764.346175,1171,0,74625.36370437501,0.0110321044921875,-0.00567626953125,-0.99945068359375,1
1571527764.389346,1172,0,74625.383701375,0.01104736328125,-0.00543212890625,-0.999359130859375,1
1571527764.389433,1173,0,74625.40370204167,0.010772705078125,-0.005462646484375,-0.9983673095703125,1
1571527764.405923,1174,0,74625.42369804168,0.01153564453125,-0.0050506591796875,-0.9994659423828125,1
1571527764.425977,1175,0,74625.44369404168,0.01123046875,-0.0048065185546875,-0.9996490478515625,1
1571527764.44601,1176,0,74625.46369004167,0.0106353759765625,-0.005523681640625,-0.998748779296875,1
1571527764.466089,1177,0,74625.48368604167,0.010955810546875,-0.00531005859375,-0.9998931884765625,1
1571527764.506177,1178,0,74625.50368304166,0.011138916015625,-0.00439453125,-0.99932861328125,1
1571527764.506276,1179,0,74625.52367904167,0.0106353759765625,-0.005462646484375,-0.9986419677734375,1
1571527764.526059,1180,0,74625.54367504167,0.0099639892578125,-0.00494384765625,-0.9999542236328125,1
1571527764.545917,1181,0,74625.56367104167,0.0110931396484375,-0.004241943359375,-0.9992218017578125,1
1571527764.565847,1182,0,74625.58366704168,0.0110626220703125,-0.0059356689453125,-0.9991912841796875,1
1571527764.586396,1183,0,74625.60366404167,0.0111846923828125,-0.0059814453125,-0.9986572265625,1
1571527764.622129,1184,0,74625.62366004167,0.0110321044921875,-0.0053558349609375,-0.998992919921875,1
1571527764.626087,1185,0,74625.64365604168,0.010040283203125,-0.0039825439453125,-0.9993133544921875,1
1571527764.64607,1186,0,74625.66365204167,0.0105438232421875,-0.00439453125,-0.998382568359375,1
1571527764.665974,1187,0,74625.68364804167,0.0106353759765625,-0.005615234375,-0.9990692138671875,1
1571527764.686136,1188,0,74625.70364404167,0.011016845703125,-0.0050506591796875,-0.99920654296875,1
1571527764.706238,1189,0,74625.72364104167,0.0109100341796875,-0.00537109375,-0.9983367919921875,1
1571527764.74708,1190,0,74625.74363704167,0.0108489990234375,-0.006256103515625,-1.000152587890625,1
1571527764.747274,1191,0,74625.76363304167,0.0105438232421875,-0.0053863525390625,-1.000030517578125,1
1571527764.765997,1192,0,74625.78362904167,0.01055908203125,-0.004638671875,-0.9983673095703125,1
1571527764.786034,1193,0,74625.80362504168,0.011016845703125,-0.0040283203125,-0.9989471435546875,1
1571527764.806087,1194,0,74625.82362204167,0.01031494140625,-0.0047607421875,-0.9988555908203125,1
1571527764.826096,1195,0,74625.84361804168,0.0108489990234375,-0.005126953125,-0.998779296875,1
1571527764.866206,1196,0,74625.86361404168,0.0108489990234375,-0.005340576171875,-1.00030517578125,1
1571527764.866307,1197,0,74625.88361004167,0.010894775390625,-0.005584716796875,-0.999114990234375,1
1571527764.886202,1198,0,74625.90360604167,0.0105438232421875,-0.0052947998046875,-0.9991607666015625,1
1571527764.905912,1199,0,74625.92360204167,0.0113372802734375,-0.0043182373046875,-0.9994049072265625,1
1571527764.926031,1200,0,74625.94359904167,0.010955810546875,-0.004852294921875,-0.9992523193359375,1
1571527764.946017,1201,0,74625.96359504167,0.011077880859375,-0.0046539306640625,-0.9990692138671875,1
1571527764.98593,1202,0,74625.98359104167,0.0113525390625,-0.004852294921875,-0.9992828369140625,1
1571527764.986029,1203,0,74626.00358704168,0.010498046875,-0.00543212890625,-0.9988555908203125,1
1571527765.006002,1204,0,74626.02358304166,0.0110931396484375,-0.0059967041015625,-0.99920654296875,1
1571527765.025819,1205,0,74626.04358004167,0.010101318359375,-0.0057830810546875,-0.9990081787109375,1
1571527765.045898,1206,0,74626.06357604168,0.011138916015625,-0.0050506591796875,-0.9989776611328125,1
1571527765.066101,1207,0,74626.08357204167,0.0107269287109375,-0.00543212890625,-0.9991302490234375,1
1571527765.105186,1208,0,74626.10356804167,0.0111236572265625,-0.0045013427734375,-0.9991607666015625,1
1571527765.105863,1209,0,74626.12356404167,0.011383056640625,-0.0041046142578125,-0.9995574951171875,1
1571527765.125909,1210,0,74626.14356004167,0.010711669921875,-0.005462646484375,-0.9984130859375,1
